Acc_x [m/s^2],Acc_y [m/s^2],Acc_z [m/s^2],AnyFall,NegOutcome
-0.010560051,-0.056746483,0.002131131,0,1
-0.020378182,-0.05634308,0.003826554,0,1
-0.019120753,-0.046862602,0.009220229,0,1
-0.003529517,-0.040595055,0.018663805,0,1
0.000809601,-0.05205536,0.004129403,0,1
-0.017192382,-0.05993271,-0.025531631,0,1
-0.069982074,-0.06536865,-0.081858695,0,1
-0.17072567,-0.044306755,-0.17194527,0,1
-0.22734432,-0.019558907,-0.22674967,0,1
-0.3177538,0.047495842,-0.27786458,0,1
-0.33674648,0.061674118,-0.29017836,0,1
-0.35070255,0.052456856,-0.3129165,0,1
-0.33866072,0.004832268,-0.28166384,0,1
-0.2980072,-0.00650692,-0.24872592,0,1
-0.18655242,-0.019883156,-0.18719053,0,1
-0.14696398,-0.020596504,-0.1525265,0,1
-0.13542113,-0.011583328,-0.1007003,0,1
-0.11407489,-0.008178711,-0.036643185,0,1
-0.09545784,0.001661301,-0.009479638,0,1
-0.05158147,-0.007464409,0.000906086,0,1
-0.054493807,-0.015683174,-0.003727859,0,1
-0.094176464,-0.024430275,-0.03602399,0,1
-0.10719426,-0.041007996,-0.06470547,0,1
-0.09728013,-0.037233353,-0.07625353,0,1
-0.08791239,-0.02525425,-0.0839829,0,1
-0.10187822,-0.014177322,-0.06073468,0,1
-0.086728506,-0.013269424,-0.023255903,0,1
-0.036320124,-0.001232147,-0.06136543,0,1
-0.024451097,-0.002335548,-0.060357556,0,1
-0.039453965,0.004130363,-0.055171456,0,1
-0.041862153,-0.002781868,-0.063055955,0,1
-0.03978119,-0.05961895,-0.049049802,0,1
-0.05695589,-0.037697792,-0.05459651,0,1
-0.0523825,-0.027668953,-0.06436566,0,1
-0.07789066,-0.03664875,-0.0735835,0,1
-0.10335892,-0.037944794,-0.07691195,0,1
-0.13422418,-0.01324749,-0.09234986,0,1
-0.13671851,0.011254311,-0.109420106,0,1
-0.14168407,0.012798309,-0.122872695,0,1
-0.16489016,0.009504318,-0.13012636,0,1
-0.17876443,0.006690979,-0.11669793,0,1
-0.16128653,-0.019593239,-0.10837617,0,1
-0.13123366,-0.04069519,-0.08181195,0,1
-0.12828079,-0.032007217,-0.046717457,0,1
-0.08994151,0.004400253,-0.014150051,0,1
-0.08735557,-0.003604889,-0.017578818,0,1
-0.09299366,-0.028787613,-0.027599873,0,1
-0.0823522,-0.025686264,-0.060030974,0,1
-0.07793107,-0.02379322,-0.085109994,0,1
-0.08095526,-0.028121948,-0.07089317,0,1
-0.08052735,-0.013614655,-0.049217775,0,1
-0.06273815,0.005256653,-0.006035256,0,1
-0.06450107,-0.010446548,0.013988463,0,1
-0.06262653,-0.016542435,-0.006556614,0,1
-0.03759712,-0.022236824,-0.03778756,0,1
-0.036419727,-0.013557434,-0.03781848,0,1
-0.058601934,-0.020065308,-0.046385378,0,1
-0.05690223,-0.04200077,-0.07198674,0,1
-0.05349755,-0.03906536,-0.073648736,0,1
-0.055558566,-0.016070366,-0.05157405,0,1
-0.05730762,-0.01475811,-0.042566404,0,1
-0.060702708,-0.038565636,-0.012309333,0,1
-0.058972463,-0.031867027,-0.001823636,0,1
-0.04753589,-0.02372837,-0.01294346,0,1
-0.059545238,-0.016695976,-0.021804739,0,1
-0.06720707,-0.0109272,-0.03587403,0,1
-0.053099576,-0.012048721,-0.09167709,0,1
-0.0376397,0.014051437,-0.13758476,0,1
-0.053168137,0.06423855,-0.16279145,0,1
-0.10509625,0.115216255,-0.24987032,0,1
-0.11435525,0.040721893,-0.27586734,0,1
-0.13111936,-0.13332176,-0.1950691,0,1
-0.08748936,-0.10246754,-0.000942498,0,1
-0.070739485,-0.054718018,0.060177103,0,1
-0.086250275,0.009128571,-0.039132144,0,1
-0.10482157,0.064450264,-0.14287639,0,1
-0.121418014,0.07085991,-0.3048588,0,1
-0.15500239,-0.053593636,-0.34622154,0,1
-0.14099944,-0.03324604,-0.29074568,0,1
-0.08011938,0.03818035,-0.122859776,0,1
-0.06066656,0.039671898,-0.1318635,0,1
-0.096547715,0.010293007,-0.4048013,0,1
-0.30427408,-0.08564758,-0.7746872,0,1
-0.37750328,-0.1452074,-0.91000754,0,1
-0.28112888,-0.25211143,-0.8679495,0,1
-0.19829425,-0.25425434,-0.7441592,0,1
-0.07974365,-0.28404522,-0.5286411,0,1
-0.025908679,-0.2921629,-0.5336519,0,1
-0.053270638,-0.33365726,-0.6282035,0,1
-0.26600575,-0.5923624,-0.5973127,0,1
-0.30431172,-0.6035385,-0.3164354,0,1
0.023874298,-0.2184124,0.16686113,0,1
0.010779323,-0.38670826,0.09686155,0,1
-0.05143945,-0.46656895,0.06299418,0,1
-0.022561219,0.031784058,-0.20403841,0,1
0.0215808,0.2998438,-0.53994536,0,1
0.05488816,0.029473305,-1.0709566,0,1
0.21133152,-0.33384895,-0.09507783,0,1
0.27765536,-0.24659538,0.48463902,0,1
0.21989673,-0.7374258,1.052264,0,1
-0.1104528,-1.1838264,1.4029709,0,1
-1.0000306,-0.73106575,2.4146826,0,1
-1.2800348,0.14426804,2.0126023,0,1
-1.4580909,0.5332823,1.2994819,0,1
-1.2230544,0.46601486,1.1565691,0,1
-0.67561275,-0.11104298,1.6952863,0,1
-0.028511047,-1.5052233,1.782419,0,1
0.11392279,-1.1596756,0.5005514,0,1
0.47160956,-0.7374363,0.38575265,0,1
1.0978515,-0.55978394,0.92304444,0,1
0.9448624,-0.3867216,0.7533695,0,1
0.1648654,0.35818958,-0.66434824,0,1
0.46751562,0.48680305,-0.8239281,0,1
0.6854177,0.12036419,-0.59030277,0,1
0.4013129,-0.000671387,-1.027859,0,1
0.09598374,0.05045414,-1.3646371,0,1
-0.06841636,-0.71539974,-0.965207,0,1
0.11809829,-0.8406868,-0.63443327,0,1
0.13509586,-0.5433321,-0.70705515,0,1
0.25008547,-0.41714668,-0.39308995,0,1
0.27937147,-0.5874891,-0.18080965,0,1
-0.021552645,-0.66911983,-0.11784261,0,1
-0.49380863,-0.658905,-0.006999731,0,1
-0.6099626,-0.7335501,0.025938049,0,1
-0.65113807,-1.2758694,0.018797696,0,1
-0.71181095,-1.5605297,-0.01411128,0,1
-0.63835746,-1.6022978,-0.09742308,0,1
-0.34893328,-1.2629309,-0.13886556,0,1
-0.33172035,-0.98501205,-0.2711196,0,1
-0.3793692,-0.25723553,-0.5650527,0,1
-0.07046944,0.45309258,-0.29694927,0,1
0.7134103,2.352312,0.80908084,0,1
0.40948346,3.842928,1.2512352,0,1
0.1705218,4.357238,1.2418967,0,1
-0.10498573,4.158663,1.1185212,0,1
-0.05448404,3.3910217,1.1234863,0,1
0.04933089,1.5025911,0.9763412,0,1
0.3401286,0.16881657,0.71743184,0,1
0.55695456,-0.48956203,0.6971359,0,1
0.39625317,-1.1779852,0.18650305,0,1
0.10194926,-1.0376549,-0.17851345,0,1
-0.064413235,-0.2024746,-0.22345662,0,1
0.16161507,0.122000694,0.31926593,0,1
0.19721751,0.0578022,0.61445737,0,1
0.14798833,0.42828465,0.80522525,0,1
0.001040593,0.54383564,0.6370074,0,1
-0.23182374,0.53549004,0.31427586,0,1
0.17207137,0.8202591,0.8437984,0,1
0.38582104,0.901803,0.73398244,0,1
0.20177026,0.3007164,0.07275387,0,1
0.059435952,-0.10570431,0.03811393,0,1
-0.19063401,-0.44054794,-0.14707588,0,1
-0.47214055,-0.592186,-0.41788864,0,1
-0.4938848,-0.3035307,-0.5202097,0,1
-0.3657499,0.09210205,-0.25263715,0,1
-0.24598339,-0.143363,0.14492747,0,1
0.007834949,-0.19365025,0.26732033,0,1
-0.07877864,0.22495174,-0.09384216,0,1
-0.20648137,0.2982645,-0.03794748,0,1
-0.22593358,0.13915825,0.19397378,0,1
-0.15239047,0.0614233,0.2718742,0,1
-0.021457836,0.001337051,0.29147527,0,1
-0.015070424,-0.14548683,0.19713126,0,1
-0.045158565,-0.16332912,0.19142109,0,1
-0.11815235,0.011183739,0.20608634,0,1
-0.10196855,0.13648987,0.18735482,0,1
-0.06652662,0.22446823,0.08486947,0,1
-0.019688476,0.060917854,0.16322502,0,1
0.004207559,0.035170555,0.18091531,0,1
-0.035991736,0.008049965,0.06818384,0,1
-0.05777668,0.004701614,0.011812268,0,1
-0.05328534,0.067801476,-0.058185272,0,1
-0.09801472,0.04214096,-0.119798355,0,1
-0.13856314,0.029501915,-0.16021147,0,1
-0.16477841,-0.012763023,-0.24362913,0,1
-0.13385892,-0.01706791,-0.25995234,0,1
-0.108366184,0.008475304,-0.19047758,0,1
-0.11737415,0.011203766,-0.17788538,0,1
-0.12306166,0.010128021,-0.2175063,0,1
-0.13063988,0.011242866,-0.27149403,0,1
-0.14103937,0.006215096,-0.26859155,0,1
-0.14088593,0.015041351,-0.23344898,0,1
-0.0983161,0.0514431,-0.17565826,0,1
-0.06501698,0.073265076,-0.15429674,0,1
-0.042934354,0.07993126,-0.12456156,0,1
-0.041679956,0.06987572,-0.11095108,0,1
-0.024172937,0.08264446,-0.09939676,0,1
-0.045112595,0.05195427,-0.10690338,0,1
-0.040810518,0.023843765,-0.100871995,0,1
-0.04442025,0.023036957,-0.09422054,0,1
-0.07000827,0.032668114,-0.103778385,0,1
-0.10658468,0.042974472,-0.122246586,0,1
-0.09228134,0.09520912,-0.11946402,0,1
-0.077105194,0.0940876,-0.1532429,0,1
-0.0933809,-0.07861042,-0.40660393,0,1
-0.14020951,-0.17220592,-0.62183934,0,1
-0.35631078,-0.5914211,-0.89255583,0,1
-0.27898863,-0.45768833,-0.8123724,0,1
-0.06206146,-0.001096726,-0.505759,0,1
0.17115213,0.52799606,0.15987386,0,1
0.122406624,0.41960144,0.24111874,0,1
0.079042196,0.30639553,0.2849234,0,1
0.14422677,0.6030874,0.6050862,0,1
0.19729574,0.81508446,0.7931225,0,1
0.20662981,0.7992821,0.76246494,0,1
0.15924603,0.49178505,0.49291667,0,1
0.10849601,-0.092746735,0.15957373,0,1
-0.0564892,-0.0760479,0.06671958,0,1
-0.16053614,0.038269997,0.003818352,0,1
-0.2528913,-0.12466431,0.013717189,0,1
-0.14892554,-0.13460255,-0.016455397,0,1
0.3195236,0.21824265,0.45785347,0,1
0.3295036,0.038826942,0.8074017,0,1
0.17277478,-0.19625854,0.8045303,0,1
0.14121436,0.001285553,0.66105,0,1
0.2966029,0.5243015,0.58147323,0,1
0.4723344,1.2012348,0.885081,0,1
0.37104198,1.2213583,1.1944895,0,1
0.13801877,1.340744,0.6839423,0,1
-0.3365779,2.063675,-0.75981927,0,1
-0.35402504,2.524396,-0.94258285,0,1
0.09393282,2.7065516,-0.3021558,0,1
0.3110858,1.7848825,0.33961535,0,1
0.3062373,1.4049301,0.349168,0,1
0.07395535,1.0814409,-0.123756684,0,1
0.06119015,1.083293,-0.085025735,0,1
0.15956563,1.0091476,0.23945019,0,1
0.32216537,1.0280552,0.35556966,0,1
0.35006574,1.0512371,0.37669268,0,1
0.3569687,0.82133484,0.5245432,0,1
0.4555989,0.607255,0.5910153,0,1
0.65155905,0.04683304,0.72265875,0,1
0.6903612,-0.48505783,0.95100945,0,1
0.7123697,-0.7250366,1.0413151,0,1
0.49793896,-1.4214935,0.6716318,0,1
0.25631183,-1.9255042,0.3035604,0,1
-0.080459125,-3.1446772,-0.32532454,0,1
-0.084200725,-3.959611,-0.7243761,0,1
-0.15506062,-3.9797044,-0.95425606,0,1
-0.4868572,-3.537755,-1.7164874,0,1
-0.617826,-3.0499,-2.071432,0,1
-0.7032806,-1.6432467,-2.3621948,0,1
-0.6858378,-0.5228119,-2.166984,0,1
-0.64280266,-0.31281185,-1.7823334,0,1
-0.5413278,-0.30000305,-0.75607145,0,1
-0.42109036,-0.12542343,-0.3173352,0,1
-0.19417712,0.86224365,0.17129546,0,1
-0.51679546,0.9414635,0.18684874,0,1
-0.8490802,0.569787,0.07970688,0,1
-1.2016274,-0.43115807,-0.537381,0,1
-1.3864244,-0.9211216,-0.7534059,0,1
-1.6180437,-0.8701458,-0.12170136,0,1
-1.2293652,-0.2506008,0.51812154,0,1
-1.1365261,-0.12726498,0.47220194,0,1
-0.96922785,-0.27049637,0.34219748,0,1
-0.8344058,-0.14321613,0.42829147,0,1
-0.6005443,0.6968069,0.4540154,0,1
-0.5957901,0.58414173,0.31092238,0,1
-0.6004422,0.104367256,0.22480989,0,1
-0.24373952,-0.37558365,0.30655253,0,1
0.024569005,-0.23459625,0.39172453,0,1
0.190925,0.13421726,0.17756256,0,1
0.18527275,0.07725811,-0.09826536,0,1
0.21282502,0.005795479,-0.08207571,0,1
0.14690301,-0.11950016,-0.1280407,0,1
0.10204744,-0.14213276,-0.20257995,0,1
0.13639021,-0.09027004,-0.16709374,0,1
0.1522992,-0.107847214,-0.10094026,0,1
0.15761095,-0.1044178,-0.04145002,0,1
0.113860376,-0.07437515,0.10387468,0,1
0.055465024,-0.06633377,0.09126318,0,1
-0.000417836,-0.021382332,-0.014265677,0,1
0.021876674,0.08253193,-0.07264113,0,1
0.05422559,0.080973625,0.001820567,0,1
0.11888175,0.04737854,0.34602234,0,1
0.17695436,0.018746376,0.4446305,0,1
0.29661655,-0.021976471,0.2339587,0,1
0.24876201,0.008841515,0.13310027,0,1
0.25111407,-0.08196449,0.14331529,0,1
0.34559888,-0.19248009,0.24811862,0,1
0.37018913,-0.20754242,0.33645988,0,1
0.5838747,-0.3266611,0.39096254,0,1
1.0313424,-0.31718254,0.29389244,0,1
1.3225608,-0.22205448,0.22500448,0,1
1.9382156,-0.30227947,0.14635655,0,1
2.1249676,-0.35441685,0.31556183,0,1
1.8101059,0.19695473,0.77299845,0,1
0.99075234,0.46191502,0.47581813,0,1
0.35723218,0.09023476,0.039739765,0,1
-0.86301744,-0.48539352,0.024786204,0,1
-1.2315995,-0.16327667,0.5009738,0,1
-0.69975483,1.0743103,1.5771148,0,1
0.05681479,1.3903332,2.373769,0,1
-0.4194716,0.9564915,2.0842302,0,1
-1.3334162,0.4072113,1.0156555,0,1
-1.2687664,0.014895439,0.8067148,0,1
-0.58897364,-1.4232864,0.9070011,0,1
-0.44653633,-2.1510372,0.7135268,0,1
-0.46908778,-1.9562593,0.69154894,0,1
-0.26193774,-1.4457741,1.1537423,0,1
-0.1094071,-1.2992249,1.446801,0,1
0.3387547,-0.8656521,2.0433683,0,1
0.70346576,0.07598877,2.8687017,0,1
0.6930377,0.5580692,3.2635458,0,1
0.46032262,1.6298075,3.5163786,0,1
0.46388972,2.483817,2.9701042,0,1
-0.2917233,4.120614,0.5032757,0,1
-1.606564,3.0395708,-0.18223226,0,1
-1.8401134,1.3810596,-0.5947741,0,1
-1.8067844,0.5486469,-2.743018,0,1
-1.3600676,0.6577959,-3.1004436,0,1
-0.50732064,-0.8770647,-2.2541163,0,1
-0.33620518,-0.78070545,-1.8185419,0,1
-0.5326863,-0.46352005,-1.918804,0,1
-0.6664902,-0.9208803,-1.4639803,0,1
-0.41110894,-1.2632341,-0.96916586,0,1
0.25797713,-1.5661478,-0.24785288,0,1
0.4220381,-1.5813837,-0.26169673,0,1
0.3747992,-1.3874426,-0.28302217,0,1
0.36262777,-0.79609203,-0.0404689,0,1
0.60179245,-0.6835613,0.34213537,0,1
0.97872514,-1.0674152,1.1263723,0,1
0.62473476,-1.3247862,0.9549483,0,1
0.42346433,-0.994133,0.40900934,0,1
0.6294028,0.06066513,0.013693884,0,1
1.1630541,0.37894535,0.72412413,0,1
2.318106,1.5227022,2.6518173,0,1
1.1231136,2.8975172,2.3538747,0,1
0.23680344,3.0471401,1.3319752,0,1
-0.82683,2.1372805,-1.8568623,0,1
-1.5946946,1.0475597,-3.2099385,0,1
-2.5286121,-0.3170185,-2.869051,0,1
-1.2254819,1.3617067,-0.24621736,0,1
-0.82349604,1.6667299,-0.000242621,0,1
-0.7271133,-0.3142395,-0.26925278,0,1
-0.4302612,-1.5572004,0.18800008,0,1
0.3153817,-2.498128,1.2998961,0,1
-0.029417515,-2.524325,0.98458976,0,1
-0.3502909,-2.4466233,0.75558394,0,1
-0.1782934,-2.1478605,1.2262713,0,1
0.121839345,-2.1514134,1.7230409,0,1
0.5311342,-2.1188803,2.1724246,0,1
-0.01947701,-0.869915,1.1580453,0,1
-0.74977314,0.15669727,0.5733911,0,1
-1.0215862,1.433814,1.4967229,0,1
0.32875884,1.5930872,3.034419,0,1
2.2218494,1.6602144,2.7940395,0,1
-3.35995,2.5728407,-5.930484,0,1
-5.8526096,2.7601538,-8.648287,0,1
-3.0802944,0.08829403,-5.8852453,0,1
-1.1790977,-0.9622421,-4.515562,0,1
-0.28213608,1.5645819,-4.453042,0,1
-0.83696187,1.488245,-4.547316,0,1
-0.6648556,0.39419174,-3.7383363,0,1
0.3178896,-0.86447906,-1.8555208,0,1
0.3034137,-1.1180449,-1.6478567,0,1
-0.33879817,-1.9641318,-2.4520037,0,1
0.59784913,-1.9333901,-2.1367881,0,1
1.1419377,-1.9046535,-1.5215225,0,1
0.85684836,-2.1371703,-1.1169395,0,1
0.1655033,-2.0693316,-1.783189,0,1
-0.31671602,-0.88484573,-3.0454473,0,1
0.45859477,-0.18263721,-2.9450965,0,1
0.9055649,-0.98042774,-2.650494,0,1
1.1807076,-3.174573,-2.592756,0,1
0.408817,-3.1781487,-2.3993301,0,1
-1.4613954,-1.2576599,-0.34621847,0,1
-0.07078838,-1.5550432,4.207362,0,1
-0.6159138,-1.1290903,3.5938118,0,1
-6.3715763,-7.587352,1.5805663,0,1
-10.456563,-14.518625,2.2114186,0,1
-5.745483,-7.106123,1.4053518,0,1
-1.7865897,-2.0427084,1.5118771,0,1
-1.5853297,-1.9879756,0.8329482,0,1
-1.1069779,-2.3383408,0.34088907,0,1
-0.7130232,-2.3199196,0.35668293,0,1
-0.34315303,-1.567173,-0.22716856,0,1
0.01087831,-1.5620251,-0.12884927,0,1
0.060273126,-1.4850321,0.044254445,0,1
-0.029770255,-0.49183655,-0.45636585,0,1
-0.06952996,-0.285285,-0.42032227,0,1
-0.2005291,-0.69254494,-0.000229787,0,1
-0.8177801,0.8225374,0.57598984,0,1
-1.1230246,2.4802275,-0.4528871,0,1
-1.1318238,6.5516005,-2.0286872,0,1
-0.9684787,9.280339,-1.5191401,0,1
-0.80685586,13.416863,0.05435969,0,1
0.10581133,13.16858,0.7462253,0,1
0.26877028,11.240785,1.1197766,0,1
0.62368554,5.462963,1.9941751,0,1
1.7905833,1.9647655,1.5061433,0,1
2.508213,-5.2744355,-1.5452573,0,1
0.5697906,-9.318744,-1.949702,0,1
0.071752995,-9.538511,-1.322855,0,1
-0.06445059,-7.7497377,1.1030194,0,1
-0.07545763,-6.3087826,2.358501,0,1
-0.6257118,-4.47243,3.5403223,0,1
-1.5775311,-3.2713518,1.8943324,0,1
-1.7840422,-2.173562,1.4815732,0,1
-1.1229124,-0.3387041,3.1235108,0,1
-0.55622137,3.3962917,3.2832713,0,1
1.1439897,7.637496,2.269685,0,1
0.6929636,9.171409,2.5317461,0,1
0.8013006,9.775552,1.9724153,0,1
0.98973423,7.33937,-0.12111521,0,1
0.6437623,4.335391,-0.7455339,0,1
0.005587854,-1.4983358,0.13693245,0,1
-0.08814606,-2.9958591,-0.9503227,0,1
-0.3109801,-2.9549475,-0.18623152,0,1
-0.5735923,-2.9853187,1.9640924,0,1
-0.7649481,-4.097032,1.8167933,0,1
-1.1481609,-4.2472887,1.8839418,0,1
-0.9106854,-1.8768363,1.0509979,0,1
-0.5783806,-0.51626396,0.83832127,0,1
-0.6595638,1.9695816,1.5019438,0,1
-0.41363814,2.683755,0.9135965,0,1
0.12720434,1.8198557,-0.27280307,0,1
-0.51009274,-0.14716244,-0.87037945,0,1
-0.35361722,-0.46138,-1.434677,0,1
0.04503566,-1.2875891,-1.0080707,0,1
0.50882673,-0.7162514,-0.788154,0,1
1.0525384,0.22783947,-0.017468244,0,1
1.0236167,0.08029652,0.21431908,0,1
0.92552257,0.30060673,0.03005752,0,1
0.21977684,0.36828136,-0.86759317,0,1
-0.06769344,0.47098255,-1.0948776,0,1
0.002105892,0.7717552,-0.82242215,0,1
0.42403603,0.4706993,-0.1995415,0,1
0.5469903,0.18255615,0.12578756,0,1
0.6057159,-0.83158684,0.63593054,0,1
0.3833744,-1.214778,0.66942656,0,1
-0.14508957,-0.7707119,0.28711563,0,1
-0.2579191,0.36685276,0.27470258,0,1
-0.20588204,0.7924185,0.320436,0,1
-0.25900948,0.32883835,-0.110928595,0,1
-0.3533127,-0.50226116,-0.39287335,0,1
-0.460249,-0.8197136,0.23531435,0,1
0.32740703,-0.048521996,0.5251342,0,1
0.47790012,0.12517834,0.39617026,0,1
0.032460757,0.30780983,0.2977629,0,1
-0.15754205,0.5648413,0.13367343,0,1
0.005600601,1.0087767,-0.37837362,0,1
0.27302375,0.81811714,-0.2992439,0,1
0.33501652,0.47618198,-0.07233858,0,1
0.4629106,-0.24306011,0.23235145,0,1
0.43694824,-0.33398056,0.33516315,0,1
0.4510022,-0.21970272,0.32096016,0,1
0.42323166,-0.19677925,0.12684818,0,1
0.090479024,-0.3114195,0.091991864,0,1
-0.38787887,0.11019611,-0.06987472,0,1
-0.40705433,0.54815197,-0.09722242,0,1
-0.3544102,0.36762428,-0.13923287,0,1
-0.38699704,-0.41026402,-0.088609874,0,1
-0.34759387,-0.5440264,0.051422045,0,1
-0.1036263,-0.14723778,0.23210375,0,1
0.04411404,0.06019497,0.2402583,0,1
0.113684654,0.041314125,0.19794378,0,1
0.051634155,0.42235088,0.18824151,0,1
0.030085206,0.49203682,0.1806781,0,1
0.053509332,0.19465828,0.118651524,0,1
0.10918339,0.001778603,0.12559563,0,1
0.13048431,-0.12812138,0.1723684,0,1
0.16436796,0.15974808,0.13628542,0,1
0.11363814,0.19980145,0.10393691,0,1
-0.046536766,-0.04348564,-0.22622731,0,1
-0.04291752,-0.13172245,-0.44147703,0,1
0.13108543,-0.89869785,-0.70308924,0,1
-0.041043796,-0.9572134,0.09239101,0,1
-0.023773141,-0.48476315,0.420316,0,1
-0.2230526,-0.53065205,0.7849099,0,1
-0.25069168,-0.6434307,0.7204973,0,1
-0.20150101,-0.61022186,0.30494487,0,1
-0.5206286,-0.732419,0.07291329,0,1
-0.6185419,-0.77488804,-0.000117123,0,1
-0.60597557,-0.23888588,-0.15951443,0,1
-0.51739967,0.6960058,-0.07103018,0,1
-0.24922411,2.1615572,0.52679604,0,1
0.072609186,1.7852468,1.2420745,0,1
0.19236568,1.2781591,1.4865378,0,1
0.15295777,0.35037136,1.4430834,0,1
0.26515877,0.34049892,1.376962,0,1
0.6542845,0.99030876,1.4043225,0,1
0.3941626,0.39807606,0.94662005,0,1
0.29556838,-0.01376152,0.7000759,0,1
0.117170714,-0.21908092,0.02803217,0,1
-0.06620091,0.1951561,-0.055147097,0,1
0.013040663,0.797801,0.018321885,0,1
-0.110473916,0.5798588,-0.049218614,0,1
-0.1193769,0.86826897,0.08243765,0,1
-0.1880316,1.1944418,0.5969301,0,1
-0.27016735,0.8005514,0.5374134,0,1
-0.06656615,0.039958954,-0.047767945,0,1
0.16669859,-0.46017265,-0.41315043,0,1
0.07244507,-0.5076952,-0.13086574,0,1
-0.051186718,-0.38148212,0.52246344,0,1
-0.054434463,-0.24787045,0.7987723,0,1
-0.21324,0.23699856,1.5183861,0,1
-0.16786,1.1821203,1.7787608,0,1
-0.07289496,1.6487293,1.773254,0,1
-0.12593663,1.8624525,1.8562192,0,1
-0.19751087,1.7403574,1.9407744,0,1
-0.31541654,1.885602,2.4079087,0,1
-0.75395083,1.6185598,3.5078511,0,1
-0.87007636,0.7911968,3.6108048,0,1
-0.32110336,-0.1686678,1.5861617,0,1
-0.016311184,-0.03505993,0.51614124,0,1
-0.42143348,-0.15815735,2.8076947,0,1
-1.0742002,-0.7310133,3.6782217,0,1
-0.60325,-1.2601881,2.1087115,0,1
0.52851266,-2.2349892,0.17064518,0,1
0.8363693,-2.2529125,-0.6534557,0,1
0.877901,-2.914052,-2.3502681,0,1
0.106072634,-3.4247823,-1.877875,0,1
-0.4747303,-3.3271246,-1.0858687,0,1
0.017538086,-3.2790442,-0.66653395,0,1
0.316144,-3.2743697,-1.8690453,0,1
-0.36160618,-1.4985266,-2.66872,0,1
-1.177166,1.4768648,-3.898947,0,1
-1.1077328,3.5874004,-4.9395614,0,1
0.18866175,8.698863,-3.589083,0,1
0.48766482,9.165341,-1.4745084,0,1
0.50719094,7.202737,1.6142863,0,1
0.0892441,3.6533508,0.4605354,0,1
0.2827074,2.7548094,0.10546297,0,1
0.401383,1.7509556,0.64271927,0,1
0.3959717,1.5693426,0.7446506,0,1
0.39220637,1.1924324,0.9756655,0,1
0.25682995,-0.07533264,0.7647239,0,1
0.18656713,-0.31447315,0.5759798,0,1
0.13640085,-0.09183979,0.22494826,0,1
0.1811607,0.070178986,0.085381426,0,1
0.28097677,0.014548302,0.15370964,0,1
0.2007753,0.7115965,0.3264286,0,1
0.2543543,1.1528625,0.5201098,0,1
0.3871312,1.1978827,1.1552299,0,1
0.4005956,1.0917492,1.6313446,0,1
0.27376628,0.15533543,2.0673056,0,1
-0.03641984,-1.9192905,1.0527964,0,1
-0.38337743,-2.9181476,0.2352094,0,1
-0.6016789,-4.4481907,-1.4960128,0,1
-0.50618327,-4.8284607,-2.2591848,0,1
-0.13503164,-4.5838866,-3.0049646,0,1
-0.07446009,-4.774846,-2.2538967,0,1
-0.31838316,-5.2180343,-1.6949322,0,1
-1.1050864,-5.7952113,-0.88923,0,1
-1.3603966,-5.5256042,-0.40187892,0,1
-1.8087753,-3.5354605,0.92834973,0,1
-1.8377678,-0.24459362,1.483623,0,1
-1.7142313,1.1030502,1.6197572,0,1
-1.7774338,1.7885733,1.8488077,0,1
-1.8135095,1.3317356,2.0563097,0,1
-1.5521526,0.33387756,2.7814176,0,1
-1.2444818,0.95883656,1.8310089,0,1
-1.4516506,1.386178,0.67779887,0,1
-1.462874,1.3209734,-1.1456633,0,1
-0.7659149,1.1889868,-1.8115729,0,1
0.61326563,1.4500256,-2.311195,0,1
1.0762131,0.11471748,-1.7627482,0,1
1.1817889,-0.75712204,-1.5745738,0,1
1.3680847,-0.98923683,-1.2532568,0,1
1.509608,-0.784585,-1.2603505,0,1
1.5663218,-0.23927212,-1.3286943,0,1
1.0944674,0.24258041,-0.63748455,0,1
0.89613885,0.17360878,-0.26531258,0,1
0.68714863,-0.11711407,0.09534555,0,1
0.6446183,-0.07253075,0.055830836,0,1
0.75309753,-0.16821098,-0.3920043,0,1
0.6325102,-0.34642124,0.30905542,0,1
0.27373505,-0.18065834,1.0195521,0,1
-0.1555346,0.00080204,1.5489746,0,1
0.13480058,-0.21229649,1.256053,0,1
1.0235853,-0.62996006,0.10438956,0,1
1.1796069,-0.4357462,-0.26453826,0,1
0.66305524,0.30401707,-0.059659526,0,1
-0.59073514,0.99427605,0.020908758,0,1
-0.9463235,0.5493717,0.011054963,0,1
-1.0112967,-0.43827724,0.12998354,0,1
-0.34132722,-0.49092388,-0.2878379,0,1
0.10540797,-0.37555408,-0.65176076,0,1
0.7865449,-0.3409605,-1.1291137,0,1
0.8954848,0.004061699,-1.1537683,0,1
-0.09147434,1.6465521,-0.44689918,0,1
-1.369614,1.5096531,0.30098477,0,1
-1.3804933,0.81762314,0.16650102,0,1
-0.4832133,-0.08014679,-0.4706087,0,1
-0.12489322,-0.37752914,-0.59525925,0,1
-0.30010676,-1.3789358,-0.584592,0,1
-0.73942995,-1.6341934,-0.2826813,0,1
-0.98157704,-1.2362194,-0.06831315,0,1
-1.2748331,-0.7124586,-0.027928293,0,1
-1.1158558,-0.7467556,-0.17671701,0,1
-0.14488767,-0.5822191,-0.38138917,0,1
0.6921463,0.016039848,-0.5666281,0,1
0.58893055,0.22088718,-0.640614,0,1
-0.37513044,0.09854221,-0.8129632,0,1
-0.8902819,0.12580681,-0.923655,0,1
-1.8593267,1.0093861,-0.6187359,0,1
-1.2997019,2.211854,0.09688857,0,1
-0.36167914,1.5590019,0.41459405,0,1
0.4042591,-2.1633325,1.6725807,0,1
0.27571446,-2.0650697,2.492216,0,1
-0.25318784,0.78219414,3.5554576,0,1
-1.1787109,0.7486391,3.060016,0,1
-1.6473703,0.49584198,2.4367404,0,1
-2.5962658,0.31714058,0.7720847,0,1
-2.7660053,0.1412344,0.13534439,0,1
-2.266622,-0.14544392,0.11614299,0,1
-1.7246982,-0.23937511,0.7655157,0,1
-1.7551752,-0.23125839,0.7846497,0,1
-2.2167711,-0.21506405,0.17660558,0,1
-2.3937933,-0.15391827,-0.24998796,0,1
-2.5288944,0.06158352,-1.0478036,0,1
-2.6311007,0.14494228,-1.2547624,0,1
-2.6287603,0.23403645,-1.3309469,0,1
-2.1298265,0.21619034,-1.8543775,0,1
-1.8498727,0.04300022,-2.1329463,0,1
-1.4920396,-0.061286926,-2.4939594,0,1
-1.0399327,-0.5649538,-2.9375453,0,1
-0.6775227,-0.8255701,-2.9878156,0,1
-0.056837738,-0.8643484,-2.747865,0,1
0.16736203,-0.5756731,-2.3626814,0,1
0.24171034,0.17390156,-0.34865972,0,1
0.5779689,0.5946026,0.75264716,0,1
1.0665424,0.47164345,0.18707243,0,1
1.8243467,0.5082922,-0.036745608,0,1
2.2048247,0.31783772,0.12794793,0,1
2.913801,-0.7772827,0.023591816,0,1
2.3118858,-1.3846283,-0.113420725,0,1
1.7185501,-1.4284706,-0.023897171,0,1
0.7576644,-1.1686487,-0.035348117,0,1
0.03828954,-0.7502184,-0.31652588,0,1
-2.0553563,0.7362766,-1.0956409,0,1
-0.21781307,-0.036919594,-0.9335391,0,1
1.8780415,-0.60502625,-0.51166385,0,1
3.4754615,-0.36965656,-0.39565396,0,1
1.9167122,-0.68480587,-0.9408066,0,1
-1.5533257,-3.138226,-1.9379756,0,1
-0.32475328,-4.144384,-1.8072968,0,1
0.7852402,-3.8079467,-1.6760798,0,1
1.5555564,-2.6031017,-1.1425855,0,1
1.3896183,-1.8505793,-0.80528843,0,1
2.521353,-0.41592503,0.37763798,1,0
3.6625743,0.24980545,1.8190198,1,0
2.9309425,0.14231396,1.582686,1,0
0.4640136,-0.63587,0.22319162,1,0
-0.3864819,-1.6117935,-0.24898884,1,0
-1.0081301,-3.8045287,-1.0463438,1,0
-0.38494956,-4.7296734,-1.5488821,1,0
-0.089778185,-4.587992,-1.6987332,1,0
0.5490202,-4.474668,-0.57502913,1,0
1.0467958,-3.9942298,-0.07361424,1,0
2.1513047,-2.5979352,0.5997412,1,0
5.4420495,0.63656044,3.7110026,1,0
6.7871532,3.3338919,2.4271781,1,0
1.4987857,1.9171734,-0.061576873,1,0
-1.3667537,4.414897,0.24658692,1,0
-5.483199,13.874139,-0.20469534,1,0
-2.04912,18.351898,2.1761384,1,0
0.74296844,15.924737,4.098168,1,0
0.8123938,5.4991045,4.301335,1,0
-1.0302441,1.1348915,2.5992053,1,0
-0.6697071,-1.6408405,0.5047707,1,0
2.1624422,-3.2907286,2.3962994,1,0
1.2989895,-4.9219627,2.1735413,1,0
0.83275706,-4.1399603,2.0207381,1,0
0.34332812,-2.4756064,2.6354249,1,0
-3.4819388,-0.81568146,4.421722,1,0
-1.6053505,1.5721922,4.9145894,1,0
0.04583299,2.2834044,4.545423,1,0
0.024405003,0.7371712,2.060239,1,0
-0.023249745,-0.32776546,1.0983654,1,0
0.06085217,-1.3127203,0.7077833,1,0
-1.0553663,-2.9381113,1.0399129,1,0
-0.24306363,-2.6494603,1.3528509,1,0
0.6370199,-1.704257,1.3158876,1,0
0.28502908,-1.4537096,1.3053651,1,0
0.45643693,0.3534193,1.7236205,1,0
0.5653297,1.8041964,1.6276674,1,0
0.093087316,1.9367495,1.5804061,1,0
0.6213943,2.7053833,1.4841404,1,0
1.0416188,3.0873184,1.4611554,1,0
0.6994343,2.4250736,1.1261821,1,0
-1.5223744,0.7453871,1.0041339,1,0
-1.2004032,0.72443676,1.3423495,1,0
0.9338982,-0.1855936,1.9587557,1,0
0.7276051,-1.9738064,1.7031866,1,0
-0.15756181,-3.7943048,0.15797515,1,0
-1.1431769,-2.8958373,-0.6299853,1,0
-2.2964995,-2.6120872,-1.0167803,1,0
-1.4275477,0.28978825,-1.1828467,1,0
-0.2616582,1.7779016,-1.3964417,1,0
1.5479968,3.477929,-1.1969016,1,0
1.8895137,2.133954,0.074667275,1,0
1.5302916,0.9584303,0.117743224,1,0
0.9648416,-0.015238762,-0.2453995,1,0
0.83451366,-0.25605202,-0.37825775,1,0
0.74452055,-0.5289297,-0.02262637,1,0
0.39699927,-0.19406033,0.8222199,1,0
0.192451,0.055018425,1.177596,1,0
0.1330333,0.8855181,1.5560387,1,0
-0.029832274,1.105999,1.7198144,1,0
-0.6417565,0.6108084,1.481983,0,1
-0.4193087,0.4799385,1.4388456,0,1
-0.6523702,0.2496252,1.1335189,0,1
-0.7814257,-0.08963108,0.5624256,0,1
-0.3683734,0.11828613,0.5805877,0,1
-0.010832965,0.4418621,0.4916416,0,1
0.44570136,0.8668604,0.2798668,0,1
0.28461188,0.6135607,0.18580073,0,1
-0.07293565,-0.010445595,0.020119235,0,1
-0.010266529,-0.12498188,0.039326865,0,1
-0.3142585,-0.42849445,-0.19262668,0,1
-0.31367838,-0.12948895,-0.06266824,0,1
-0.1222116,0.12625217,0.057051197,0,1
-0.048646323,0.0626812,0.5058813,0,1
-0.35090664,-0.272151,0.6686093,0,1
-0.595323,-0.2634325,0.70630324,0,1
0.1350835,0.34082317,1.2008476,0,1
0.41404378,0.38906193,1.2706604,0,1
1.0544231,0.5516882,0.9807428,0,1
1.1352801,0.5212736,0.71031296,0,1
1.1689357,0.3287201,0.50805813,0,1
1.2056608,0.32846355,1.0236045,0,1
0.661178,0.32612324,0.6981534,0,1
-0.034275442,0.8910799,0.59215707,0,1
0.4236421,0.995183,1.9875631,0,1
0.77194786,0.4438944,3.2405188,0,1
-0.18019372,0.71425533,2.4587965,0,1
-0.54252034,0.9112501,1.9269813,0,1
-0.5927726,0.91804504,0.93979776,0,1
-0.13878435,1.1156597,0.9711662,0,1
-0.097583935,1.6805344,0.17979603,0,1
-0.44255412,1.7648554,1.0080197,0,1
0.33987522,2.0982628,1.9946711,0,1
0.34006295,1.9529114,1.1920462,0,1
0.3694774,1.3695393,0.830287,0,1
-0.09779292,1.1941032,0.6476291,0,1
-0.005368054,0.912343,0.8944543,0,1
-0.43107706,0.21778488,1.2966645,0,1
1.4591565,-0.014641762,2.4028945,0,1
2.7361395,0.37592602,1.9693688,0,1
2.7323995,-0.4332714,0.16140884,0,1
1.995571,-1.4003744,-0.9726918,0,1
0.8553659,-1.4474173,-1.1796596,0,1
-0.113147706,-1.898757,-1.4219555,0,1
-0.2787947,-2.53054,-1.2334967,0,1
-2.3910682,-2.438787,-0.41099402,0,1
-2.7166555,-2.5942984,-0.25768054,0,1
-2.3594372,-2.8528128,-0.19073969,0,1
-1.0944868,-1.8551879,-0.8802163,0,1
-0.33922654,-1.4591665,-1.524298,0,1
0.4182832,-2.0398078,-1.1814454,0,1
-0.21434206,-1.8063631,-0.46291572,0,1
-0.34558725,-1.3338366,-1.091148,0,1
-0.051258504,-1.0663042,-1.3685125,0,1
-0.18106371,-0.46744728,-1.0717778,0,1
-1.1493317,2.4160023,-2.0761216,0,1
-1.1356763,2.7004948,-0.04240617,0,1
-0.73883677,2.5639553,0.68284005,0,1
-0.4914832,3.2411842,-0.8669005,0,1
-0.33626637,2.6254702,-1.1350675,0,1
-0.67843527,-0.05803871,-0.78263086,0,1
-2.0454917,-1.9108682,-0.6283843,0,1
-2.5552216,-2.3512673,-0.6378523,0,1
-2.6210728,-2.2317176,-0.37800935,0,1
-2.3755486,-1.5210991,0.22729236,0,1
-2.2379017,0.4338646,0.583767,0,1
-2.2291532,0.7500963,1.3522995,0,1
-2.1105652,0.63229847,1.4957136,0,1
-1.702297,0.6893482,0.9787979,0,1
-1.3184838,0.5397434,0.8703624,0,1
0.14909005,0.19678879,1.1565295,0,1
1.7228312,-0.55271244,-1.6525424,0,1
2.5329828,-1.5619364,-2.443506,0,1
3.3244615,-1.8787327,-0.93752754,0,1
3.063711,-0.9515095,-0.5031557,0,1
2.3662267,1.5646687,-0.7783406,0,1
1.7422769,2.864212,-1.2844925,0,1
1.3933029,3.0134954,-1.202554,0,1
1.116236,1.75564,-1.2595568,0,1
1.2619144,1.0780735,-1.2784889,0,1
1.4919622,-0.027709007,-1.2009099,0,1
1.134019,-0.91512966,-1.899771,0,1
1.0398678,-1.2198763,-1.9861743,0,1
0.9524064,-1.5309362,-1.9068068,0,1
0.72203976,-1.1888409,-1.7729486,0,1
0.20286016,-0.2876377,-1.0637183,0,1
0.15108822,-0.4553852,-0.7771589,0,1
0.020241588,-0.7682743,-1.0498774,0,1
-0.34086075,-0.7578144,-1.4854137,0,1
-0.5164126,-0.24133873,-1.0816593,0,1
-0.99264216,0.6751156,0.7781346,0,1
-1.0893111,0.10475159,2.509563,0,1
-0.87284935,-0.7896137,2.9952114,0,1
-0.7358812,-1.7353458,3.2174795,0,1
-0.7719696,-1.6486664,2.9242983,0,1
-0.9270349,-1.3996563,1.8834043,0,1
-0.89585793,-0.84264755,1.354852,0,1
-0.8157201,-0.57546234,1.2680117,0,1
-0.8640889,-0.02954197,0.84740883,0,1
-0.8534812,0.031009674,0.67749983,0,1
-0.6856408,0.025021553,0.55990994,0,1
-0.44982523,-0.10346413,0.8170004,0,1
-0.3776408,-0.08383846,0.97645736,0,1
-0.4850355,0.09088898,1.0375699,0,1
-0.48812723,0.054660797,1.0041422,0,1
-0.28357697,0.19084167,1.0503973,0,1
0.43236786,0.21047497,0.7496393,0,1
1.0183183,-0.011450768,0.31424594,0,1
1.2972896,-0.21119213,0.26367992,0,1
0.8082879,0.22990227,0.49581215,0,1
0.2453635,0.085868835,0.037639953,0,1
0.38291597,-0.7233486,-0.5016595,0,1
0.36267662,-0.38024902,-0.5465818,0,1
0.4327313,0.26703548,-0.73314565,0,1
0.5669208,0.30595016,-0.8608911,0,1
0.93495834,0.32254028,-0.82330114,0,1
0.5643433,0.3789749,-0.56898963,0,1
0.35065615,0.17289543,-0.42737257,0,1
0.23019087,-0.95934105,-0.31008342,0,1
0.3969077,-1.0505323,-0.27309436,0,1
0.9616014,-0.43147087,0.022431582,0,1
1.0843755,-0.3293476,0.22674295,0,1
0.99526376,-0.16042328,0.24296099,0,1
0.68772596,0.18641472,0.15713623,0,1
0.5109142,0.1335535,0.049983554,0,1
0.31135872,-0.16732216,-0.06119962,0,1
0.6775111,-0.14713669,0.14364186,0,1
0.9778892,-0.020885468,0.26928547,0,1
1.0343174,0.30713463,0.27446535,0,1
0.89523786,0.26113415,0.20632619,0,1
0.7861167,0.22741413,0.027793214,0,1
0.87669027,0.07259941,0.020295843,0,1
1.093358,-0.017829895,0.028663307,0,1
1.0211698,-0.17738438,0.003634661,0,1
0.49751267,-0.2932787,-0.000372931,0,1
-0.71245384,-0.71206856,0.3186994,0,1
-0.40929836,-0.78658104,0.97899985,0,1
0.29820874,0.09502888,1.4616253,0,1
-0.005895615,0.6442652,2.3805878,0,1
-0.84696823,0.1027174,2.5400317,0,1
-0.7791217,0.08123112,3.3086689,0,1
-0.6952197,-0.56538963,3.6100714,0,1
-1.1842009,-0.86586,3.2288756,0,1
-1.650568,-0.80324745,2.2748635,0,1
-1.201028,-0.6437683,2.358451,0,1
-0.6430445,-0.0808506,2.2787616,0,1
-1.367779,1.2261543,-1.397969,0,1
-0.8233678,2.061922,-3.1455572,0,1
0.4434622,2.2778425,-3.1583657,0,1
0.5289924,1.9458561,-2.52499,0,1
1.0446682,1.3382397,-1.5065436,0,1
0.71663463,-0.47870636,-2.2897875,0,1
0.7711219,-1.3569841,-3.4913528,0,1
1.9396409,-2.1669025,-4.7046065,0,1
2.510171,-2.2626724,-4.1126194,0,1
3.034721,-1.818634,-2.622465,0,1
3.2849548,-0.9504385,-2.1785564,0,1
3.3236308,-0.535203,-1.6463966,0,1
2.7395794,0.2992134,0.18252504,0,1
2.5026517,0.6147871,0.890219,0,1
2.622467,0.13073444,0.9596969,0,1
2.3114657,-0.91948414,-0.5034742,0,1
1.557992,-0.87712574,-0.7930951,0,1
0.42089832,0.72105503,0.5077325,0,1
1.2617804,0.066892624,-0.5671518,0,1
0.6422761,0.38792038,-3.734488,0,1
-1.615351,1.8526278,-4.0838957,0,1
-1.8324106,1.6024637,-3.4702194,0,1
-1.3364038,1.6215,-2.120483,0,1
-0.6029116,1.1718187,-2.4153323,0,1
0.9991929,-1.0253105,-3.106319,0,1
1.5518854,-2.3037581,-2.3451407,0,1
1.5444481,-2.64334,-1.892607,0,1
1.2622365,-2.8543854,-1.4081233,0,1
1.0215477,-2.3922396,-1.3698086,0,1
0.8045093,-0.6482439,-1.8158553,0,1
1.4399669,1.4367027,-3.0436082,0,1
1.9407003,2.0042648,-3.5809696,0,1
2.1009526,1.5553303,-3.5820577,0,1
1.6089225,0.8508215,-3.6476314,0,1
-0.010723293,-0.94535065,-2.7664974,0,1
-1.9466779,-1.5842047,1.5966508,0,1
-1.5135919,-0.8381252,1.5206479,0,1
-0.20665279,4.4902716,-0.85929835,0,1
-0.99923694,6.9457254,-0.7491942,0,1
-1.1742122,6.32928,-0.2690269,0,1
0.550601,4.759012,-2.3466647,0,1
0.94838333,3.164978,-3.0741897,0,1
1.0703129,-2.9549766,-2.362679,0,1
1.1705008,-5.619161,-1.8549366,0,1
1.2906299,-8.836543,-1.1177424,0,1
0.5265453,-10.826883,0.3199402,0,1
-0.463343,-9.513549,0.2791667,0,1
-3.0666337,-1.3785391,0.7416751,0,1
-4.1131864,3.5539293,1.6730917,0,1
-6.165732,7.855056,2.016305,0,1
-5.359622,6.354333,3.2213933,0,1
-4.0680366,7.8196306,0.90873003,0,1
-1.9230413,6.7775717,-4.355713,0,1
-1.4258441,4.109132,-4.5182676,0,1
-1.2260878,-0.92903423,-2.7904358,0,1
-0.04015705,-4.7841005,-1.539948,0,1
0.3251627,-6.8757734,-0.50790197,0,1
-0.06904179,-10.176631,0.77570665,0,1
-0.42148823,-9.773358,1.6558936,0,1
-1.1957608,-4.3419824,4.299264,0,1
-2.9763548,7.064286,1.5270901,0,1
-3.064764,10.476073,1.4016303,0,1
-1.6723883,6.8968325,0.5255045,0,1
-1.837709,6.9978456,-0.98428845,0,1
-1.924394,5.5533867,-1.2396379,0,1
-0.74510664,-0.011670113,-0.59465766,0,1
-0.42919943,-2.7494912,-0.92735195,0,1
0.16821286,-7.366435,-0.7673365,0,1
0.49905276,-9.120861,-0.30065683,0,1
-0.19236438,-10.201101,0.75558454,0,1
-1.100824,-4.6269484,2.4603047,0,1
-0.43114495,-0.06991577,3.7651422,0,1
-2.6394658,7.490567,2.6830294,0,1
-4.05131,8.217086,2.6268098,0,1
-2.9910064,6.8833456,2.9467258,0,1
-2.854536,6.9393396,1.0527699,0,1
-2.7274513,5.7220592,0.8190232,0,1
-2.5035248,1.6465445,0.41196257,0,1
-2.3279073,-1.5003014,-0.01253134,0,1
-1.8847537,-5.441048,-0.2788872,0,1
0.33074147,-9.214813,0.74018985,0,1
0.9620651,-10.812704,1.2351555,0,1
1.6952221,-9.161725,2.740652,0,1
2.8639317,-5.840643,3.969131,0,1
-0.29383332,7.0668516,4.1148596,0,1
-0.3285523,9.143985,3.2348933,0,1
-0.7869007,5.5848083,1.524023,0,1
-2.9366884,6.9412165,0.34165955,0,1
-2.3226826,6.795207,0.9095929,0,1
-0.23232067,2.6956139,1.0049675,0,1
-0.74026424,-1.9224482,0.36224437,0,1
-0.9392978,-4.3041945,0.33160782,0,1
0.47389048,-8.49164,0.3165704,0,1
1.018701,-9.400176,0.62717927,0,1
0.42316142,-8.14991,1.3509841,0,1
1.6633239,-1.2372627,3.114243,0,1
2.0016568,3.475541,3.4353988,0,1
-0.41226327,8.05627,4.8623524,0,1
1.4056866,6.353921,5.1718044,0,1
1.7759194,7.3566866,3.8857203,0,1
-2.499442,7.2026453,3.8745806,0,1
-3.0839105,5.5909452,4.1037717,0,1
-1.6273518,-0.9010229,3.0525172,0,1
-0.98222095,-3.3153815,2.3705072,0,1
0.5903828,-6.7303457,1.3257351,0,1
2.182838,-10.51994,-0.09238964,0,1
2.0632384,-10.912738,0.13575512,0,1
4.766411,-6.0900536,0.19780242,0,1
5.3855042,-1.5682402,0.8928612,0,1
2.4729424,9.04865,4.2872696,0,1
2.4503453,4.837578,1.5001999,0,1
0.6486312,5.3720284,2.5259593,0,1
0.24124312,8.022449,4.1987553,0,1
1.1789699,6.4258413,3.2444968,0,1
0.77509844,0.8942766,1.896069,0,1
0.2227855,-3.964901,1.7177356,0,1
0.58209974,-6.067246,0.570243,0,1
1.560669,-9.2661915,-0.8580523,0,1
1.7535545,-9.52191,-0.3076722,0,1
1.9096813,-6.463168,0.81924814,0,1
4.177881,1.6367722,0.64568067,0,1
5.454435,5.3055305,1.1438267,0,1
6.176209,5.456829,-0.30371022,0,1
5.2393856,5.0372963,-1.1675502,0,1
3.3818457,6.607745,2.254796,0,1
2.5296278,4.1717424,4.0013256,0,1
2.5674171,2.261547,3.2714684,0,1
1.9010854,-2.5180683,1.6687772,0,1
1.631304,-4.0678253,0.9635427,0,1
1.1797724,-6.6311307,-0.28832543,0,1
0.9582237,-8.623426,-1.2594326,0,1
0.8886081,-8.121121,-1.7714977,0,1
0.6988305,-2.0851288,-3.1585348,0,1
1.5497565,3.2537136,-2.3908722,0,1
2.812919,9.26477,0.007281542,0,1
1.3846312,6.7217894,0.6985183,0,1
0.9499659,6.642894,2.0907035,0,1
0.46576518,3.577466,2.0949569,0,1
0.2814702,0.7837734,1.1693219,0,1
0.02739364,-3.9201875,0.6957622,0,1
-0.18148981,-8.070423,0.4996953,0,1
0.011715967,-9.643035,-0.077445716,0,1
0.4825427,-8.264109,-0.4963342,0,1
0.46848732,-5.2381673,-0.8714726,0,1
1.0436478,2.311946,-2.103173,0,1
2.8732924,7.5042963,-1.0776584,0,1
2.510416,6.4266157,-2.304412,0,1
1.0709889,5.3840485,-2.0938032,0,1
1.2434536,5.55186,-0.34389484,0,1
1.7913018,3.7784615,1.9398503,0,1
1.8577051,0.033823967,2.220361,0,1
1.6514575,-2.1397228,1.8271301,0,1
1.1528052,-5.2198844,1.0613477,0,1
0.6516888,-6.2828717,0.5381341,0,1
-0.33340842,-9.099562,-1.3791282,0,1
-0.58337337,-9.417622,-3.3066068,0,1
-0.5400561,-6.136938,-5.0631814,0,1
1.3813553,7.706168,-4.184794,0,1
1.6286292,13.031299,-3.0703158,0,1
-0.3391664,5.142747,-1.3056996,0,1
1.5721986,6.9369917,3.129815,0,1
1.6650854,7.1829386,2.6973715,0,1
0.21353568,3.1250658,0.030419335,0,1
-0.1763649,-0.1098299,-0.1466073,0,1
0.22418284,-4.456108,0.13524741,0,1
-0.003964674,-6.92851,-0.18147302,0,1
-0.108442485,-8.104796,-0.55978304,0,1
0.23903768,-7.8992567,-1.0976422,0,1
0.72992116,-6.1123524,-1.4634061,0,1
0.12578243,0.057094574,-3.4933949,0,1
2.0170114,6.610387,-3.2918766,0,1
2.508756,6.5674677,-3.2031918,0,1
1.0950183,6.685807,-2.5602412,0,1
1.4456065,7.0968046,-1.3919162,0,1
3.1437511,5.31015,0.27734423,0,1
3.710044,1.8550644,-0.31512463,0,1
2.9712238,-0.7109928,-0.7717254,0,1
1.289502,-4.054806,-0.9351785,0,1
0.9652586,-5.583798,-0.8122759,0,1
-0.403328,-9.041087,-1.1856141,0,1
-2.8519735,-8.959165,-2.1776555,0,1
-3.9707935,-6.240267,-3.1634903,0,1
-0.7307416,4.312724,-3.3724127,0,1
0.24899513,7.82742,-2.8225489,0,1
-0.13559255,3.0522966,-0.9527275,0,1
1.6458602,5.977561,-0.5314115,0,1
1.6789848,7.141385,-0.6657473,0,1
-0.051783875,4.33595,-0.6725649,0,1
0.11571293,2.4010363,-0.5355419,0,1
1.5260006,-0.9438572,-0.87792325,0,1
0.033086896,-4.954907,-1.0075134,0,1
-1.0421267,-6.3455706,-0.7110987,0,1
-1.1116802,-8.771742,-0.39701834,0,1
-0.747025,-9.343058,-0.66783726,0,1
-3.0580528,-2.9940567,-1.3211943,0,1
-5.2112937,6.197646,-2.0241482,0,1
-1.3383638,6.390998,-3.2223,0,1
-4.1045885,6.1669884,-2.5490894,0,1
-5.5308824,6.464715,-2.0690036,0,1
-3.6365066,4.989147,-1.3808712,0,1
-0.47013408,2.369337,-1.330361,0,1
0.6064234,1.0868158,-1.8540853,0,1
0.10177559,-2.43326,-1.95316,0,1
-0.69815564,-3.7459717,-1.4458687,0,1
-1.2196678,-4.8252482,-0.4840449,0,1
-0.51156604,-4.321665,-0.3802678,0,1
0.09714426,-3.6507826,-0.7691581,0,1
0.024379462,-1.97651,-1.0249987,0,1
-1.4514949,-0.1589241,-0.6081987,0,1
-4.1276245,4.588196,-0.15070474,0,1
-3.212085,1.2778568,1.38516,0,1
-1.819231,-0.22805119,1.0162617,0,1
-0.10676381,2.5227604,-0.6391648,0,1
-0.2443435,3.4048166,-0.5699546,0,1
-1.2492566,1.0108414,0.46761724,0,1
-1.2260907,-1.5290737,0.3802009,0,1
-1.2034929,-1.8510575,0.22461185,0,1
-1.2494804,-1.6649933,0.6913501,0,1
-1.2035432,-1.6041441,1.1111524,0,1
-1.0539571,-1.1204052,1.6853924,0,1
-0.7762741,0.06985855,1.2551568,0,1
-0.56218946,0.2426691,0.8329227,0,1
0.05654459,-0.47174644,0.20626256,0,1
0.3656784,-0.48140335,0.002616182,0,1
0.43903553,-0.05575466,-0.38871288,0,1
-0.48300388,0.2229433,-0.44214362,0,1
-0.86956203,0.55983543,-0.027867213,0,1
-0.3938622,1.0399475,0.78483486,0,1
-0.056039646,0.6518307,0.8258822,0,1
-0.4306358,-0.011687279,0.5262577,0,1
-1.0451176,0.20910072,1.015936,0,1
-1.0010594,0.075647354,1.5283185,0,1
-0.4748885,-0.19940186,1.796694,0,1
-0.35888836,-0.21909046,1.4587572,0,1
-0.68791246,-0.0877924,0.6101632,0,1
-0.9884846,0.13424778,0.30208874,0,1
-1.082684,0.037737846,0.35426572,0,1
-1.1702956,-0.25410652,0.6990994,0,1
-1.0709388,-0.23385906,0.8713348,0,1
-0.80696034,-0.15765858,0.93996805,0,1
-0.68648154,-0.15502834,0.6491257,0,1
-0.747405,-0.088461876,0.44077247,0,1
-0.7961784,0.0989418,-0.015584976,0,1
-0.7551523,0.073866844,-0.19318843,0,1
-0.6231011,-0.04646778,-0.21228765,0,1
-0.4454187,-0.20054531,0.09713997,0,1
-0.3204465,-0.28265095,0.25112355,0,1
-0.19110018,-0.3339901,0.45679742,0,1
-0.20864521,-0.27096176,0.47135386,0,1
-0.2771528,-0.16151047,0.39003694,0,1
-0.4122671,0.005545616,0.10480227,0,1
-0.47512874,0.10395527,-0.060483694,0,1
-0.6040274,0.14687347,-0.33936754,0,1
-0.736977,0.042078972,-0.43853405,0,1
-0.8227075,-0.22817135,-0.3216299,0,1
-0.7681361,-0.42841816,-0.058222488,0,1
-0.8516563,-0.46934223,0.065434754,0,1
-1.2092316,-0.21881008,0.10850763,0,1
-1.4478304,0.005355835,-0.012685299,0,1
-1.3088683,0.12439823,-0.24226536,0,1
-0.82742774,0.8228178,0.04382038,0,1
-0.73849815,1.7273989,-0.04472235,0,1
0.8032642,2.0972118,-0.1484599,0,1
1.5398445,1.2417326,-0.092276126,0,1
2.3672876,0.49664783,-0.20633823,0,1
2.1160467,1.0637045,-0.47257614,0,1
1.9330596,0.90367794,-0.4966961,0,1
1.5849295,-0.10781956,-0.40848315,0,1
1.3220416,-0.8869982,-0.35681424,0,1
0.71625084,-1.9097214,-0.29778385,0,1
0.81599844,-1.4400845,-0.002510592,0,1
1.0736829,-1.2153511,0.11883472,0,1
1.1675705,-0.9469261,-0.23726374,0,1
0.69010556,-0.6807451,-0.5597111,0,1
-0.33665496,-0.16660595,-0.9403142,0,1
-0.94187737,-0.24226761,-1.0817554,0,1
-1.0327506,-0.692358,-1.0559517,0,1
0.046966046,-1.1165428,-0.7201158,0,1
1.082977,-0.9815788,-0.61636686,0,1
2.6414344,0.11036587,-0.40601695,0,1
2.352432,1.7576475,0.104913,0,1
1.4634792,1.8503675,0.5110836,0,1
1.0044782,0.6674433,1.3827187,0,1
1.8498311,0.3542452,1.5866549,0,1
3.4769928,-0.53624916,1.1420482,0,1
3.2424135,-0.38298893,1.1632146,0,1
2.385878,-0.18569088,1.3477865,0,1
1.5919362,0.046281815,1.2290797,0,1
1.8781593,0.06358147,0.96721745,0,1
1.4061239,-0.23712635,0.7223076,0,1
0.088775754,-1.4285603,0.73512506,0,1
0.25001565,-2.1466622,0.54695696,0,1
1.5924499,-1.911334,-0.3517603,0,1
1.2953143,-1.2296124,-0.5661575,0,1
-0.66347486,0.08629799,-0.07189678,0,1
-0.67990583,-0.3018074,-0.11376334,0,1
0.16836263,-0.77491474,-0.53339577,0,1
0.8677116,-0.9264536,-0.7564521,0,1
0.6428845,-1.0084372,-0.60379964,0,1
-0.08266435,-1.2690411,-0.36357692,0,1
0.16295806,-1.3733206,-0.4421008,0,1
0.64560735,-1.4891481,-0.6119386,0,1
0.65292835,-1.9800754,-0.77621025,0,1
0.1979132,-2.2900105,-0.7456591,0,1
-0.469782,-2.8987603,-0.9023525,0,1
-0.5617727,-3.3485022,-0.9135337,0,1
-0.59620893,-3.4296384,-0.82053006,0,1
-0.49870723,-3.2311554,-0.7524665,0,1
-0.08004671,-3.2409363,-0.9429152,0,1
2.0006323,-4.5843205,-1.3588667,0,1
4.122847,-6.008451,-0.7359359,0,1
4.0082664,-6.201165,-0.12899554,0,1
2.427025,-8.001042,0.73255235,0,1
1.8244323,-9.235837,0.9536897,0,1
-0.20543712,-8.65542,0.8486313,1,0
-3.5671947,-6.7467003,-0.26278698,1,0
-4.301802,-7.5144544,2.3277664,1,0
0.54311013,-0.4116478,10.403042,1,0
2.4761586,9.752423,15.530661,1,0
5.2385936,41.939007,8.781252,1,0
8.3570795,25.836628,-2.5413382,1,0
7.135007,12.355151,-4.843275,1,0
5.4505386,-1.1081839,-12.532463,1,0
2.9595854,-4.590646,-15.752788,1,0
-6.2300825,-9.560808,1.688933,1,0
-3.3804522,-6.398308,8.631879,1,0
-3.7737486,-5.6725035,4.393321,1,0
-2.9251955,-5.8519936,-1.261542,1,0
-1.126796,-6.8044734,-2.6479514,1,0
2.792511,-8.1386795,-3.76406,1,0
0.21336335,-6.8474417,1.6861695,1,0
-2.5818057,-5.329546,3.6669436,1,0
3.2767534,-1.9454184,-2.3090525,1,0
1.0543675,3.871911,-0.42109948,1,0
0.06655534,10.725759,0.41874117,1,0
1.7288702,9.064221,1.5976918,1,0
0.8196057,5.809819,2.872697,1,0
-1.9646908,-1.0174828,5.103484,1,0
-4.529848,-1.6185904,5.9291596,1,0
-7.2537103,-0.97517014,4.297374,1,0
-3.6870677,-2.297975,3.2451506,1,0
-1.4455637,-3.461893,4.0128846,1,0
0.63384306,-1.2743807,2.5764894,1,0
0.46804264,0.35294342,1.4845217,1,0
1.3064172,1.4654951,0.21029432,1,0
2.121901,1.1825485,-0.4117903,1,0
1.9255393,0.8102608,-0.2863375,1,0
0.6331308,1.1679001,-0.09784676,1,0
-0.09490822,1.1786566,0.12093957,1,0
-0.9868971,0.7066946,0.86806196,1,0
-0.60134053,-0.5766449,0.9157213,1,0
-0.44979778,-1.2883329,0.7526739,1,0
-1.3637588,-0.6603327,-0.146379,1,0
-1.3160862,-0.13506031,-0.3971807,1,0
-0.29840666,0.06330109,0.14424801,1,0
0.07279812,0.53125477,0.72154486,1,0
0.50721395,0.6157007,0.8082075,1,0
1.1795857,0.6696253,1.1135645,1,0
0.97248816,0.8892412,1.2718613,1,0
0.1738095,1.0382814,1.0341384,1,0
-0.31524253,0.76536655,0.3395685,1,0
-0.6998247,0.76620007,0.05485837,1,0
-0.91962296,0.2582159,-0.27976015,1,0
-0.5268609,-0.34262562,-0.3641234,1,0
-0.1112822,-1.5695934,0.100676484,1,0
-0.26539534,-1.5283651,0.2590499,1,0
-0.23967531,-1.1213903,-0.013309341,1,0
0.21620673,-0.01865673,-0.4893253,0,1
0.4563475,0.40989017,-0.33252236,0,1
0.2228605,0.8028288,0.5819218,0,1
0.45684633,0.42345047,0.84510356,0,1
0.62265515,0.24108982,0.7614128,0,1
-0.053293735,0.80481815,0.8914497,0,1
-0.86126953,1.2498522,0.82033086,0,1
-1.4189781,1.1467571,0.31402597,0,1
-0.4958753,2.326313,-0.4735978,0,1
-0.36032408,2.4878263,0.027311862,0,1
-0.41619593,1.9432116,1.2979722,0,1
-0.27099752,1.7788153,1.411222,0,1
-0.17280889,1.346139,1.4408108,0,1
0.9657755,0.085549355,1.798733,0,1
1.753663,-0.2300005,1.7308159,0,1
2.0975246,-0.0848341,2.0747466,0,1
1.9939015,-0.29277134,2.697013,0,1
0.32942188,-0.45003796,3.608819,0,1
-1.8832266,2.748417,0.9018128,0,1
-2.4449892,3.5154705,0.004332066,0,1
-0.8881959,1.2593431,0.4982692,0,1
0.29592812,0.78845596,0.6602211,0,1
-0.16480432,1.3338194,0.29603302,0,1
-1.598245,0.49542332,-0.633112,0,1
-1.791837,-0.63470936,-0.639031,0,1
-2.1147838,-2.8575249,0.054047346,0,1
-2.088498,-3.7729301,0.55507,0,1
-1.615768,-4.141537,1.3275778,0,1
-1.4321518,-2.4891067,0.57612246,0,1
-1.5090418,-2.1952357,0.20915243,0,1
-1.2361872,-2.0369182,0.09767607,0,1
-0.7710011,-1.8606348,0.15396683,0,1
-0.051000234,-1.2225924,-0.12858889,0,1
-0.72113556,-0.28128624,-0.7700118,0,1
-0.64264226,0.63185215,-1.0903596,0,1
-0.23724838,1.4490232,-0.8395469,0,1
0.5381092,1.68291,-0.4351526,0,1
1.456454,2.8320103,0.86005265,0,1
1.549072,2.6451645,2.068701,0,1
1.4560004,3.6337624,1.4648944,0,1
0.930614,4.73164,-0.180491,0,1
1.4155693,3.9470463,-0.18357816,0,1
1.956469,2.4701853,0.31252098,0,1
2.1438446,2.8329554,1.6944427,0,1
1.9631019,3.2425117,2.1167805,0,1
1.3945312,1.3125019,1.0320755,0,1
1.3869449,-0.026862144,0.04406324,0,1
2.109235,-2.6237817,-1.818494,0,1
3.5948415,-6.2662582,-2.0402532,0,1
3.7411482,-7.3127356,-1.696954,0,1
3.3177464,-6.3748417,-1.3377793,0,1
2.7777007,-4.8113623,-0.8991072,0,1
1.3884681,-2.6385283,0.005548,0,1
0.53440964,-0.40123367,0.87784886,0,1
-0.06274216,0.7377596,0.37482533,0,1
-1.7289459,0.5128164,-1.678496,0,1
-2.2755551,0.14274788,-1.2962365,0,1
-3.0066063,-0.3520937,-0.8255866,0,1
-3.0293517,0.6927233,-0.01142019,0,1
-2.7033699,1.524394,0.32130587,0,1
-2.1559675,0.94365597,-1.0323286,0,1
-1.831253,0.33917522,-1.258053,0,1
-0.59911895,-0.17898464,-1.3758336,0,1
-0.31117046,-0.28417587,-1.2466942,0,1
-0.6561208,0.25158024,-0.6682477,0,1
-0.5894566,1.6937418,-0.03322801,0,1
-0.5994033,1.4912081,-0.49341148,0,1
-0.28732407,0.07653999,-0.61535877,0,1
1.8142272,-0.8003969,-0.39002866,0,1
2.864746,-1.5996275,-0.39797384,0,1
3.665589,-3.6259007,-1.0152665,0,1
3.8910544,-3.1557388,-1.0163873,0,1
4.7027874,0.26050568,-0.28106487,0,1
3.1592164,3.7912445,-0.3683238,0,1
1.7462199,5.1017942,0.22194967,0,1
0.98300356,5.535493,-0.12879369,0,1
1.5257618,5.083434,-0.9467819,0,1
1.5529395,1.8250084,-0.40849817,0,1
1.4015039,-1.2165709,0.4571442,0,1
1.3589667,-2.1113229,0.38300934,0,1
1.2806376,-4.1452208,-0.3837268,0,1
1.3672981,-5.110232,-0.621784,0,1
1.5777191,-5.0206814,-0.38914126,0,1
1.7648268,-2.8572397,0.15658972,0,1
1.9360433,-1.6762094,0.2670724,0,1
1.5833064,0.30823898,0.49692944,0,1
1.1725448,0.9428463,0.52115965,0,1
-0.27116325,1.4768887,1.0840839,0,1
-1.236048,0.8872862,1.5393761,0,1
-1.1913168,0.3996954,1.0162425,0,1
-0.9802151,0.5110111,0.71426946,0,1
-1.0100625,0.9625721,0.70175487,0,1
-0.914652,0.6365795,-0.2804049,0,1
-0.59012616,0.05877304,-1.0251379,0,1
-0.5945857,-0.37282467,-1.1064769,0,1
-0.60243577,-1.1466208,-0.58043605,0,1
-0.6120457,-1.4067812,-0.25672898,0,1
-0.32665166,-1.0162086,0.12536259,0,1
-0.09359661,-0.4385891,0.13890041,0,1
-0.14512749,-0.40852642,-0.027562294,0,1
-0.10430477,-0.30400658,-0.1166637,0,1
-0.040350925,-0.16209698,0.029865388,0,1
-0.121524654,-0.21557236,0.28153828,0,1
-0.23282453,-0.45288658,0.80172294,0,1
-0.13394868,-0.47005558,1.1939406,0,1
0.2651738,-0.33652782,1.4996301,0,1
0.50722206,-0.15414429,1.2640252,0,1
0.6417675,0.21179104,0.9644906,0,1
0.48997465,0.56286335,0.27743602,0,1
0.4246658,0.7763729,-0.3855213,0,1
0.0983603,0.9821234,-2.0813975,0,1
0.019425035,0.8381214,-2.809002,0,1
0.2059254,0.4140997,-3.0580218,0,1
0.39020437,-0.02328682,-1.8770345,0,1
0.46608216,-0.2539873,-1.4480652,0,1
0.5443715,-0.7208338,-1.4142302,0,1
0.46600476,-0.7715912,-1.5839653,0,1
0.10472125,-0.4415388,-1.7083538,0,1
0.060754836,-0.14219475,-1.2697726,0,1
0.13376768,-0.08595848,-1.0527362,0,1
0.05382222,-0.14857674,-1.0126438,0,1
-0.06366995,-0.2198658,-1.0503782,0,1
-0.1443336,-0.34616375,-1.1362177,0,1
0.29602194,-0.5119028,-0.75844365,0,1
0.4977246,-0.49307728,-0.5525808,0,1
0.558717,-0.035661697,-0.26877224,0,1
0.44891948,0.13746166,-0.12755537,0,1
0.5820869,-0.036453247,0.4148539,0,1
0.94697773,0.13155842,1.0634431,0,1
0.8777371,0.3459797,1.1444361,0,1
0.7185471,0.21719551,0.7523617,0,1
0.8721383,-0.15968513,0.4788193,0,1
0.900761,-0.5421066,0.1884062,0,1
0.5249109,-0.14762115,0.34813446,0,1
0.4747721,0.02453518,0.5379228,0,1
0.6131425,0.23244762,0.63857853,0,1
0.6073608,0.16212654,0.54873896,0,1
0.49677643,-0.07597351,0.5245745,0,1
0.68853736,0.13550663,0.5218328,0,1
0.711256,-0.03973484,0.45081845,0,1
0.44915226,-0.20988464,0.3403455,0,1
0.32130843,0.017108917,0.2868352,0,1
0.10118203,-0.051358223,0.5068212,0,1
-0.11673799,-0.07901096,0.6486512,0,1
-0.29128817,-0.051254272,0.6928501,0,1
-0.791219,0.052815437,0.5775608,0,1
-1.131352,0.04041767,0.38640663,0,1
-1.5058409,0.16053772,0.19196776,0,1
-1.2319441,0.10665798,0.22903153,0,1
-0.9400245,0.010979652,0.26255384,0,1
-0.16672489,-0.0432539,0.40156358,0,1
0.084584154,-0.058271408,0.4130618,0,1
0.06956279,-0.034949303,0.44526777,0,1
-0.32911098,-0.008015633,0.6069251,0,1
-0.48886085,-0.044448853,0.64760524,0,1
-0.8415506,-0.15428638,0.69831467,0,1
-0.97925246,-0.23806,0.7796711,0,1
-0.8982209,-0.29080296,0.71270007,0,1
-0.22443108,-0.21616077,0.33125108,0,1
0.17664503,-0.08309078,0.29509026,0,1
0.74730515,-0.16555691,-0.111402854,0,1
1.1320993,-0.19591236,-0.5652399,0,1
1.6698604,0.49075508,-1.6149437,0,1
-0.11600125,2.0134573,-2.1209846,0,1
-1.324217,2.5214834,-2.1424809,0,1
-0.6106525,1.0521097,-1.9028426,0,1
0.6423758,0.15565777,-1.7890663,0,1
1.5156536,-0.4413519,-1.2300464,0,1
0.959118,-0.8381691,-0.987118,0,1
0.8608318,-1.0471907,-0.9923204,0,1
0.897694,-1.1158838,-0.75957716,0,1
0.90991557,-1.0211658,-0.6477457,0,1
0.84921217,-0.8467989,-0.76482123,0,1
0.6036424,-0.5640793,-0.8028529,0,1
0.40708283,-0.23425579,-0.75849426,0,1
0.010745496,0.32254505,-0.64887947,0,1
-0.20913191,0.5089073,-0.51469016,0,1
-0.025853157,0.7261028,-0.25379258,0,1
0.747128,0.032484055,-0.39703837,0,1
0.8830713,-0.49474812,-0.49676764,0,1
0.54384005,-0.76540947,-0.4213921,0,1
0.39295906,-0.6212845,-0.33781433,0,1
0.19780183,-0.62589264,-0.28368494,0,1
-0.039213844,-0.4483223,-0.17255308,0,1
-0.0807567,-0.2248621,-0.15326856,0,1
-0.5090053,-0.20318794,-0.2579925,0,1
-0.8326203,-0.26572323,-0.2815201,0,1
-1.0962977,-0.17578411,-0.16699983,0,1
-1.0713351,-0.34345436,-0.27413547,0,1
-1.1769418,-0.5150156,-0.36146665,0,1
-1.5553533,-0.6078739,-0.4421062,0,1
-1.5544399,-0.36755276,-0.43726265,0,1
-0.2811981,0.97794724,-0.40867475,0,1
1.1952503,1.6825314,-0.57392716,0,1
0.5286562,1.3310137,-0.51302785,0,1
-0.73026043,1.0414505,0.09482874,0,1
0.19077271,1.343977,0.35802746,0,1
2.8781369,0.9498024,0.6096151,0,1
3.0131102,-0.94050217,0.855105,0,1
2.568577,-1.2852201,1.0529745,0,1
1.7613416,-0.4142151,1.318732,0,1
1.6024748,-0.15750408,1.2925482,0,1
1.6056287,-0.39123344,1.2454684,0,1
1.1210847,-0.29420948,1.4369903,0,1
0.7621486,-0.28538227,1.4424269,0,1
0.56767523,-0.45567608,1.2105026,0,1
0.6375032,-0.47092628,1.1970726,0,1
0.66706634,-0.39851665,1.4149337,0,1
-0.20929654,-0.41170502,1.4255079,0,1
-0.7611786,-0.30670452,1.2293591,0,1
-1.7319393,-0.038194656,0.7508466,0,1
-1.8481717,0.061915398,0.66766435,0,1
-1.837122,0.31552315,0.856882,0,1
-2.2354414,0.5727358,0.9975251,0,1
-2.3579793,0.6385908,0.8974892,0,1
-1.6965003,0.45593834,0.34242466,0,1
-1.1098701,0.41239643,0.008689702,0,1
-0.026279181,0.9978733,-0.64977586,0,1
0.9984609,1.6682806,-1.2115203,0,1
1.0667913,1.4479647,-1.3968647,0,1
1.2566319,0.21585846,-1.3516295,0,1
1.506251,-0.15363216,-1.3324238,0,1
1.7386174,-0.091005325,-1.8126199,0,1
1.2978544,-0.61605453,-2.0995822,0,1
1.0130842,-0.99455833,-1.8803154,0,1
0.8610763,-0.97288704,-1.2987411,0,1
0.86631703,-0.791769,-1.1827016,0,1
0.8282132,-0.48040867,-1.2342526,0,1
0.8322011,-0.27457142,-0.9292188,0,1
0.8306408,-0.22773647,-0.6765065,0,1
0.8275045,-0.18360043,-0.4666051,0,1
0.8582668,-0.23165035,-0.33744377,0,1
1.0720342,-0.40113258,0.20109637,0,1
1.339134,-0.65125275,0.6239352,0,1
1.3224162,-0.5521574,0.7688168,0,1
1.1002766,-0.2138977,0.8362101,0,1
0.99302655,-0.21195507,0.6594994,0,1
0.839049,-0.3428259,0.13814951,0,1
0.7374467,-0.2174797,-0.08573681,0,1
0.6773875,-0.14675999,-0.19206643,0,1
0.5364162,-0.11122799,-0.41529685,0,1
0.41024196,0.013142586,-0.46514288,0,1
-0.012529619,0.38677216,-0.1736471,0,1
-0.28982836,0.7036619,-0.4830745,0,1
-0.14525741,0.69153595,-1.0764962,0,1
0.5466245,0.5277252,-1.6003056,0,1
0.7236527,0.37168312,-1.3726583,0,1
0.5732084,-0.24472332,-0.9624863,0,1
0.4993284,-0.26747417,-0.9738767,0,1
0.37456048,-0.043909073,-0.84768826,0,1
0.021563172,0.033047676,-0.592683,0,1
-0.040169194,-0.12858963,-0.60273886,0,1
-0.12542124,-0.26023006,-0.74086493,0,1
-0.15009817,-0.1534338,-1.0475992,0,1
-0.14177927,-0.20583534,-1.2269776,0,1
-0.38982514,-0.13347435,-1.2348312,0,1
-0.5344434,-0.049933434,-1.109283,0,1
-0.62694055,-0.10225868,-0.89315856,0,1
-0.586185,0.23637486,-0.8604498,0,1
-0.5774782,0.36384392,-0.9301021,0,1
-0.42963156,0.34108543,-1.1562773,0,1
-0.27872983,0.15175724,-1.2173636,0,1
0.039684772,-0.18461895,-1.1564214,0,1
-0.006259769,0.020269394,-0.90645844,0,1
-0.08896862,0.16082478,-0.7275648,0,1
-0.05948955,0.04185772,-0.560226,0,1
0.014656812,-0.076210976,-0.5733673,0,1
0.26269248,-0.16504574,-0.79183847,0,1
0.6054979,-0.23243904,-1.1845315,0,1
0.67716086,-0.21783257,-1.2855844,0,1
0.5438456,-0.23848629,-1.2263802,0,1
0.25946248,-0.1349783,-1.1247978,0,1
-0.1863837,0.20052052,-0.9217151,0,1
0.10151532,0.36440945,-0.94640183,0,1
0.44872805,0.21223831,-1.132726,0,1
1.0696696,-0.17464161,-1.8559811,0,1
0.98551273,0.003074646,-2.08918,0,1
0.2565369,0.50014496,-1.5098982,0,1
-0.371078,0.20589733,0.30253288,0,1
-0.38353935,-0.27765846,1.1641136,0,1
0.19797847,-1.3411865,1.627834,0,1
0.7097365,-1.2730379,1.24115,0,1
1.4265249,0.23170757,0.41681072,0,1
1.5705569,1.7079029,0.01605177,0,1
1.8022037,1.225564,-0.1770941,0,1
2.1862266,-0.17949772,-0.48596388,0,1
2.0858028,-0.5851698,-0.35423374,0,1
1.6747571,-0.9629545,-0.044229686,0,1
1.2121952,-1.1898022,0.0784148,0,1
1.204066,-1.1694698,0.025519371,0,1
1.5196526,-0.795599,-0.41914117,0,1
1.6122825,-0.7775631,-0.63216555,0,1
2.2884798,-0.2659464,-1.1087166,0,1
2.8546243,0.8552637,-1.2702951,0,1
2.9078023,1.2130651,-1.6637925,0,1
1.8062406,1.4019222,-0.72136873,0,1
0.6640537,1.8693562,1.1263164,0,1
-0.77760726,3.4926043,2.3476682,0,1
-1.010132,1.740799,0.37875432,0,1
-1.6937938,0.15579033,1.2044668,0,1
-3.2642117,-0.54596806,3.8135347,0,1
-3.1452007,-0.4191656,3.4979005,0,1
-1.7760342,-0.34423065,0.46341228,0,1
-1.0533204,0.34954357,-1.1730759,0,1
-0.5808069,0.70821,-1.0132381,0,1
-0.8057386,0.23911095,-2.0593746,0,1
-1.8367753,-0.46018982,-1.6630105,0,1
-2.931902,-1.9935365,2.4219995,0,1
-1.7042934,-3.10038,4.4545865,0,1
-1.4056685,-2.726582,3.7948854,0,1
-1.4259546,0.19269657,1.3620307,0,1
-1.1795728,1.1398525,0.2742597,0,1
-0.43883562,0.12667751,-0.8403889,0,1
-0.3083543,-0.10298729,-0.4540553,0,1
-0.31462494,0.11546612,-0.1864636,0,1
-0.47161037,0.000164986,0.48484966,0,1
-0.55198383,-0.048542976,1.0006037,0,1
-0.48510072,-0.080480576,1.3721713,0,1
-0.4488993,0.044137,0.73459065,0,1
-0.46833533,0.22401237,0.51049614,0,1
-0.45602462,0.35598278,0.41280815,0,1
-0.42694145,0.25080395,0.39959815,0,1
-0.36037895,0.049375534,0.5704442,0,1
-0.34203053,-0.15441608,0.6938341,0,1
-0.3736265,-0.15391254,0.5974742,0,1
-0.37663713,0.1398058,0.315125,0,1
-0.29853195,0.30138302,0.25088984,0,1
-0.18089397,0.2639494,0.14663473,0,1
-0.20924364,0.24289608,0.09110019,0,1
-0.1191905,0.26292324,0.17248504,0,1
-0.02479508,0.108119965,0.08444653,0,1
-0.070654094,-0.009878159,-0.05352079,0,1
-0.28393647,-0.13896847,-0.3604893,0,1
-0.5686017,-0.22539806,-0.7189801,0,1
-0.554739,-0.2343626,-0.6890224,0,1
-0.18350686,-0.19109821,-0.29754585,0,1
0.03225158,-0.12659454,-0.07877974,0,1
0.5617624,-0.17257404,0.31344378,0,1
1.0078068,-0.47120094,0.55834436,0,1
1.119596,-0.54712486,0.48899168,0,1
1.1489091,-0.431386,0.05274424,0,1
1.100753,-0.2794075,-0.1423946,0,1
1.1613014,0.002119064,-0.18073896,0,1
1.2854811,0.2067585,-0.02602002,0,1
1.262592,0.3040533,-0.0596084,0,1
1.1101713,0.2874756,-0.4883176,0,1
1.0516973,0.15604019,-0.6507219,0,1
1.0410115,-0.06977272,-0.5753157,0,1
1.0018735,-0.17670727,-0.41735664,0,1
0.90962374,-0.14490509,-0.35033712,0,1
0.7385629,0.2085371,-0.24419391,0,1
0.729208,0.25588894,-0.31309038,0,1
0.6688628,-0.09404659,-0.59023607,0,1
0.54156125,-0.07036209,-0.7004443,0,1
0.5078693,-0.010466576,-0.6545624,0,1
0.41211003,0.104382515,-0.49349716,0,1
0.37589794,0.124186516,-0.3829499,0,1
0.40210465,-0.09989071,-0.37302822,0,1
0.5284965,-0.29162407,-0.51534706,0,1
0.59455216,-0.20273209,-0.5234169,0,1
0.6333812,0.15195656,-0.5148798,0,1
0.6609073,0.2529726,-0.5244352,0,1
0.7493252,0.2706871,-0.4928535,0,1
0.74935085,0.17472649,-0.36293516,0,1
0.7217824,0.11544418,-0.2715191,0,1
0.5817877,-0.090828896,-0.141887,0,1
0.48650187,-0.18375492,-0.1536604,0,1
0.31206632,-0.34602547,-0.101958916,0,1
0.22600424,-0.37308502,-0.001645133,0,1
0.17752235,-0.2774353,-0.0589507,0,1
0.05345275,-0.079898834,-0.31184486,0,1
0.020927005,-0.028468132,-0.41420612,0,1
0.018075496,0.06680012,-0.60162514,0,1
0.06099248,0.07964897,-0.6924402,0,1
0.123984195,0.037880898,-0.63677293,0,1
0.26968527,0.045568466,-0.42570248,0,1
0.2835648,0.059453964,-0.30266804,0,1
0.26963043,0.061840057,-0.1689097,0,1
0.31460166,0.1777544,-0.23431939,0,1
0.29789925,0.24224567,-0.24935517,0,1
0.25672907,0.14594936,-0.2144794,0,1
0.31523773,0.034425735,-0.17577578,0,1
0.55300874,0.026361465,0.052872054,0,1
0.6633714,0.5480633,0.3484222,0,1
0.6763026,0.77056026,0.42323053,0,1
0.71184045,0.5265455,0.4719684,0,1
0.67890006,0.22054195,0.4794851,0,1
0.5231829,-0.10594559,0.18369251,0,1
0.46747124,-0.43097115,-0.2734234,0,1
0.47963858,-0.5669346,-0.37026274,0,1
0.46808016,-0.5173483,-0.39951026,0,1
0.4567628,-0.39426994,-0.38368636,0,1
0.49154115,-0.14554024,-0.3987313,0,1
0.65740085,-0.26228046,-0.48496947,0,1
0.67061853,-0.28085423,-0.44471195,0,1
0.62348264,-0.16417027,-0.42014197,0,1
0.70287335,-0.25729752,-0.3368714,0,1
0.90917385,-0.47912312,0.029100418,0,1
0.9576592,-0.20275116,-0.009401441,0,1
0.9203493,0.005080223,-0.18219075,0,1
0.70266134,0.46764088,-0.334569,0,1
0.43000132,0.86840725,-0.14790368,0,1
0.007925196,1.1340771,-0.11444717,0,1
0.1469954,-0.40044975,-0.7154258,0,1
0.17219801,-0.9483309,-0.8335964,0,1
-0.16068931,-0.60350895,-0.52790374,0,1
-0.31469932,-0.118330956,-0.20967677,0,1
-0.29254138,0.07397461,0.45118406,0,1
-0.2508799,-0.12771893,0.67894727,0,1
-0.33983642,-0.13395405,0.5119666,0,1
-0.57402927,-0.22797203,0.104383305,0,1
-0.6476012,-0.26752663,-0.043387204,0,1
-0.72064483,-0.23787785,-0.24940233,0,1
-0.6741493,-0.24535751,-0.13258126,0,1
-0.6410415,-0.22350597,0.017647862,0,1
-0.5524965,0.041955948,0.5128188,0,1
-0.46349382,0.21341324,0.7193663,0,1
-0.27874058,0.28077126,0.44206673,0,1
-0.24217698,0.03160858,-0.2176785,0,1
-0.27375016,-0.031784058,-0.33174852,0,1
-0.31039017,0.023950577,-0.23570734,0,1
-0.3050886,0.037787437,-0.18016288,0,1
-0.28261527,0.01856041,-0.15443379,0,1
-0.22371455,0.061868668,-0.08805435,0,1
-0.18345842,0.0740366,-0.09685744,0,1
-0.14107959,0.07519913,-0.2479723,0,1
-0.13010165,0.07076168,-0.32230648,0,1
-0.11626394,0.054265976,-0.38149738,0,1
-0.048810072,-0.00151062,-0.28301966,0,1
0.0047394,-0.000146866,-0.19349009,0,1
0.024816088,0.04918003,-0.013158606,0,1
0.021919414,0.05999279,0.047684405,0,1
0.048629142,-0.007381439,0.049041625,0,1
0.07554153,0.015364647,0.08894573,0,1
0.07761739,0.047228813,0.14626932,0,1
0.042892594,0.054302216,0.1943941,0,1
0.049833015,0.029192924,0.19336438,0,1
0.08226488,0.07470989,0.2966427,0,1
0.060219184,0.13588715,0.49947947,0,1
0.035210997,0.1932888,0.59666586,0,1
0.041231632,0.09604359,0.25797653,0,1
0.033844627,-0.015296936,-0.089699775,0,1
-0.24506696,-0.11324978,-0.47417307,0,1
-0.58283705,-0.1327982,-0.5852554,0,1
-0.6175737,-0.12151146,-0.46736115,0,1
-0.5213033,0.18788624,0.34327653,0,1
-0.48860177,0.2985859,0.70156825,0,1
-0.20453626,0.12840366,0.61385685,0,1
0.5955186,-0.35935402,0.1778838,0,1
0.72585,-0.72639084,0.04918222,0,1
0.37825125,-1.5265503,0.22878253,0,1
0.53670317,-1.7496481,0.2801956,0,1
1.4605509,-0.64630795,-0.45360738,0,1
1.3778636,1.7781916,-1.2974194,0,1
1.30106,2.2205992,-1.3736365,0,1
1.5865424,0.6724396,-1.0275321,0,1
1.563514,-0.34970284,-0.8014429,0,1
1.2720724,-1.3620319,-0.8758811,0,1
1.2772472,-1.6240005,-1.0645752,0,1
1.2542593,-1.6593924,-1.0850916,0,1
1.070663,-1.3458614,-1.3851469,0,1
1.0742795,-0.939867,-1.583508,0,1
1.5544773,-0.19449615,-2.0831501,0,1
2.5134788,0.9130888,-2.3856163,0,1
2.8874593,1.8486166,-2.2886398,0,1
2.5630722,1.930047,-0.2774384,0,1
1.879288,1.4449539,1.2310526,0,1
-0.15199041,1.755908,1.9301018,0,1
-2.2348356,1.2017527,1.3539195,0,1
-2.5227244,0.6903553,1.0955143,0,1
-2.3650815,0.09587383,0.35391468,0,1
-2.3338244,0.33006382,-0.19735819,0,1
-1.9248683,1.0386314,-1.2347083,0,1
-1.3880384,0.22354603,-1.4740431,0,1
-1.2472926,-0.2763958,-1.674025,0,1
-0.54577684,-0.9132099,-2.4712148,0,1
-0.16564327,-1.0634394,-2.8036199,0,1
0.13964766,-1.2057714,-3.2057328,0,1
1.284235,-0.96937084,-3.2572365,0,1
2.1526155,-0.8387184,-3.066135,0,1
2.9597514,-0.72165394,-2.785956,0,1
2.5284448,-0.8903971,-2.7082834,0,1
1.2989237,-1.3649902,-2.3343906,0,1
2.1310625,0.18950939,-0.86985385,0,1
1.869322,1.4456863,0.3657061,0,1
-0.25638106,2.5052614,1.8570654,0,1
-0.38995177,2.4565582,2.3622932,0,1
0.04872042,1.7026606,3.1885643,0,1
0.88203037,-0.65239906,4.5215254,0,1
0.9860815,-1.450347,4.68201,0,1
0.15397978,-1.7145481,3.4255865,0,1
-0.41330257,-1.4520617,2.5365822,0,1
-0.8577585,-1.0494986,1.1586205,0,1
-0.71844155,-1.0633106,0.40314704,0,1
-0.61353415,-1.0872059,0.34012255,0,1
0.10355686,-0.21601868,0.5542098,0,1
0.30552384,0.47129726,0.21243569,0,1
0.1304948,0.5644045,-1.2794145,0,1
0.556434,-0.545043,-0.051007643,0,1
0.56185484,-1.3479605,1.1502876,0,1
0.27535647,-1.9967027,1.7368678,0,1
0.30684227,-1.6302042,1.062991,0,1
0.54679954,-0.74061775,-0.38839975,0,1
0.7565701,-0.43254662,0.020545602,0,1
0.7744161,-0.60081387,0.32318488,0,1
0.68758214,-1.0144453,-0.48876956,0,1
0.63304126,-1.5663338,-1.0800823,0,1
0.6648029,-2.8245435,-1.4379439,0,1
1.2134104,-2.4390378,-0.9853335,0,1
1.3173039,-1.7884655,-1.0673838,0,1
1.1494834,-0.76013565,-1.880708,0,1
1.2403352,-0.40282536,-1.4658793,0,1
1.2321386,-0.6522608,0.21689364,0,1
0.66019344,-2.1671667,-0.015805885,0,1
0.54286844,-3.113246,-0.28995985,0,1
0.64820445,-4.626276,-0.24795616,0,1
0.6512889,-5.056075,-0.34333026,0,1
0.5072271,-5.9249716,-0.8647251,0,1
0.025925964,-6.9906235,-0.5331364,1,0
-0.029650755,-7.4689245,0.4490162,1,0
0.30149096,-6.654462,2.8858864,1,0
0.2207905,-5.610935,2.9305515,1,0
-0.20749511,-4.118802,0.5095501,1,0
-1.6730572,-5.069772,-0.9109087,1,0
-1.9121287,-3.3560834,0.0349254,1,0
-2.3735125,15.548116,10.104609,1,0
-4.741238,28.527607,15.281567,1,0
-11.336551,38.84802,20.434048,1,0
-1.197865,18.557354,5.2846613,1,0
2.921571,6.8908205,-0.66512513,1,0
1.9616352,-5.9475007,-0.16359943,1,0
-1.1523305,-8.668878,3.484195,1,0
-1.007057,-8.693856,3.9781916,1,0
0.28272152,-2.8085647,2.4711604,1,0
0.2453466,-0.16250324,2.112739,1,0
0.03997314,1.5115452,1.6342605,1,0
-0.10335177,0.43490887,1.6352433,1,0
-0.21155953,-0.6878853,1.1895515,1,0
-0.17250614,-0.45687008,-0.41607928,1,0
-0.19364676,-1.1399784,-0.3541069,1,0
-0.36608458,-2.5082488,1.0091755,1,0
-0.56007475,-2.740283,1.5555466,1,0
-1.0303124,-2.9725184,1.9134282,1,0
-0.51491314,-1.2153616,0.985495,1,0
-0.44763342,0.47506237,0.7320953,1,0
-0.58111036,2.2530813,0.9997439,1,0
-0.57091004,2.3474636,1.0496893,1,0
-0.60152483,2.8964767,1.1199167,1,0
-0.5694211,2.1695585,1.3893776,1,0
-0.49226323,0.9946909,1.550756,1,0
-0.53328955,-1.2942209,2.0147798,1,0
-0.44280225,-1.4775972,2.3091464,1,0
0.061239004,-0.8220024,1.8965347,1,0
-0.051905036,-1.2224112,1.3689789,1,0
-0.025677264,-0.47791862,0.9712381,1,0
-0.20222628,1.2844992,0.2784649,1,0
-0.63803566,1.2266293,0.15502204,1,0
-0.9842194,1.0267334,0.37621877,1,0
-0.32907966,1.2463713,1.0754464,1,0
-0.1880454,0.85377026,1.282513,1,0
-0.37648666,-0.6699953,0.6191777,1,0
-0.36117703,-1.0823259,-0.10439247,1,0
-0.18546224,-0.2232008,-0.21365824,1,0
-0.30243948,1.1674681,0.60802203,1,0
-0.29557022,1.9111261,0.7973137,1,0
-0.11690393,1.850524,0.7862623,1,0
-0.15659745,0.8303442,0.66370106,1,0
-0.20677514,-0.46688175,0.113892436,1,0
-0.09603074,-0.68588924,0.080244735,1,0
-0.061112583,-0.6495123,0.39079872,1,0
-0.1027485,-0.6203861,0.45801044,1,0
-0.058351323,-0.5284624,0.2541688,1,0
-0.17968777,-0.13953018,0.4813896,1,0
-0.20167011,0.090646744,0.30858773,1,0
-0.086438954,0.7189331,0.64395165,1,0
-0.30451223,2.070469,1.8213956,1,0
-0.37929586,2.5707254,2.4368017,0,1
-0.5460775,2.3611765,3.949216,0,1
-0.99461114,2.8363495,4.8564115,0,1
-1.0236648,2.9619207,4.3014407,0,1
-0.5177772,1.0835648,2.3282018,0,1
-0.2254292,0.44634724,1.9545851,0,1
-0.24182814,-0.9640131,2.587403,0,1
-0.5735227,-2.1414447,3.5092106,0,1
-0.3428949,-2.0223422,3.3732069,0,1
0.43392015,-2.98391,0.27723813,0,1
0.70022535,-3.798473,-1.2901746,0,1
0.8565924,-4.8663554,-2.4504867,0,1
0.1922751,-4.2834272,-2.4750123,0,1
-0.42512727,-3.3097296,-2.1726284,0,1
-1.1308285,-2.4626002,-1.99801,0,1
-1.0206504,-1.1656866,-2.9250305,0,1
-1.3661784,3.429185,-5.1396494,0,1
-0.8851955,5.3352585,-4.137794,0,1
-0.3947903,5.7433643,-3.3110242,0,1
-0.07870241,7.699298,0.24941555,0,1
-0.17270765,7.952323,1.188639,0,1
-0.108779475,4.698452,0.9009828,0,1
-0.37231198,2.3631907,0.7397429,0,1
-0.41218266,2.098547,0.6780534,0,1
-0.30662733,1.3222456,1.2573029,0,1
-0.43382904,0.60830975,1.189602,0,1
-0.2803626,-0.24918747,0.95507675,0,1
-0.01873599,-0.835701,0.7532993,0,1
0.008546963,-0.7427263,0.70645005,0,1
-0.031493634,-0.08621311,1.0285193,0,1
-0.0557532,0.024162292,1.027677,0,1
-0.10328987,0.2831745,0.783353,0,1
-0.048194736,0.36686134,1.1943771,0,1
0.048511833,0.18393993,1.3660445,0,1
0.43498358,-0.24343872,1.1909102,0,1
0.6673715,-0.32359028,0.94374764,0,1
0.93124264,-0.88659763,0.5160419,0,1
1.0082684,-1.9724422,0.54600114,0,1
0.9955157,-2.326706,0.58324695,0,1
0.5467621,-3.3658729,0.075115375,0,1
0.2855589,-4.1839604,-0.46630484,0,1
0.12166518,-5.796196,-1.2829248,0,1
0.05469498,-5.9447374,-1.0652157,0,1
0.05911909,-5.3105497,-0.95609874,0,1
0.3155911,-2.8547015,-1.056387,0,1
0.40922683,-1.3193789,-1.1134834,0,1
0.07811576,0.51254654,-1.3296764,0,1
-0.5990822,0.6588669,-1.4075251,0,1
-1.0174278,0.6039276,-1.134012,0,1
-1.974122,0.62141514,0.06794828,0,1
-2.5100632,0.32414818,1.0513973,0,1
-3.3742735,-0.70822334,2.5314202,0,1
-3.4150653,-1.2612276,2.150725,0,1
-3.0906553,-1.1640873,1.5138595,0,1
-2.1730022,-0.47907352,0.5183821,0,1
-1.7630304,-0.093232155,0.46731973,0,1
-0.7290157,1.3122005,0.17560273,0,1
-0.8513568,1.5745325,0.10052325,0,1
-1.2428293,1.2883224,0.53379655,0,1
-0.6953302,1.1878557,0.08493854,0,1
-0.11599675,1.1254673,-0.46156922,0,1
0.3409015,0.42768574,-0.20424736,0,1
0.713578,-0.91334724,0.95891166,0,1
1.0170165,-1.4879742,1.1311402,0,1
1.4833311,-1.2810745,0.3394804,0,1
1.4648962,-0.9872713,-0.07127309,0,1
1.0606695,-0.29488373,0.09945077,0,1
0.63220185,0.10142326,0.83846307,0,1
0.35866278,-0.012584686,1.1167072,0,1
0.043603837,-0.048858643,1.4036181,0,1
0.03272116,0.11232662,1.459951,0,1
0.027070045,0.34099007,1.5522208,0,1
0.091784686,0.11799431,1.6525385,0,1
0.15421659,-0.09630108,1.7108717,0,1
0.15412629,-0.47616482,1.8570247,0,1
0.12923294,-0.50667953,1.8499527,0,1
0.06170079,-0.24934578,1.6338828,0,1
-0.47568083,-0.08015442,1.0745077,0,1
-0.5266975,0.16049099,0.31209344,0,1
-0.048283666,1.0638494,-1.0060291,0,1
-0.057083726,1.7677794,-0.98949635,0,1
-0.33877665,1.5457954,-0.8203213,0,1
-0.18188289,-0.3437662,-1.5127224,0,1
-0.2030701,-0.7562828,-1.7484921,0,1
-0.4038143,-0.9583206,-1.3598644,0,1
-0.47706628,-0.9106102,-1.0023383,0,1
-0.6834102,-0.5779114,-0.737954,0,1
-0.84022427,-0.24668789,-0.72501326,0,1
-0.7450336,-0.16070366,-0.5821891,0,1
-0.549748,-0.33953476,-0.28008378,0,1
-0.52638984,-0.50070477,-0.21005683,0,1
-0.8130836,-0.4227028,-0.3339842,0,1
-1.4763225,-0.026684761,-0.72411907,0,1
-1.7712063,0.020899773,-0.9524158,0,1
-2.067183,0.10730076,-1.4156212,0,1
-1.7660317,0.03435421,-1.5035024,0,1
-0.8371251,-0.39574814,-1.4037368,0,1
-0.74275553,-0.67969036,-1.6563282,0,1
-0.89272285,-0.6642723,-1.8534179,0,1
-1.0121666,0.055966377,-1.7833499,0,1
-0.9196191,0.63306427,-1.5061426,0,1
-0.04767911,1.0208664,-0.5428995,0,1
0.75731933,-0.112257004,0.28931072,0,1
0.6592804,-0.32745934,0.60951185,0,1
-0.030977994,0.21926212,1.2864275,0,1
-0.50462586,0.29753494,1.3824682,0,1
-1.4098904,0.09598732,1.0240831,0,1
-1.6786804,0.038409233,0.63230926,0,1
-1.6530216,0.10438442,0.57274604,0,1
-1.4742146,0.13224792,0.43723342,0,1
-1.3377986,-0.043765068,0.33602872,0,1
-1.0660253,-0.28737164,0.15252784,0,1
-0.9764167,-0.19591331,-0.06835988,0,1
-0.993185,-0.19953346,-0.33956084,0,1
-1.1451222,-0.2440052,-1.1188563,0,1
-1.1532804,-0.31702137,-1.278708,0,1
-0.86703813,-0.5872698,-1.0665137,0,1
-0.549123,-0.5610924,-0.56275845,0,1
-0.50062394,-0.6437321,-0.5435214,0,1
0.41374195,-0.9371605,-0.2658276,0,1
0.94569004,-0.47278786,-0.09850317,0,1
1.428809,0.4701109,-0.8479427,0,1
1.6566702,-0.18885803,-1.0808231,0,1
1.670234,-0.42215347,-0.8415431,0,1
1.5022389,-1.0428419,-0.4938588,0,1
1.3343465,-1.3481255,-0.3924778,0,1
0.9966821,-0.8623705,-0.43598104,0,1
0.7477677,-0.071689606,-0.84916353,0,1
0.63455874,-0.32115746,-0.78204376,0,1
0.44210684,-1.3500042,-0.4217599,1,0
0.418433,-1.8106713,-0.38045105,1,0
0.4585067,-2.2981505,-0.6629201,1,0
0.54174376,-2.5030313,-1.3587812,1,0
0.61120254,-2.5967078,-1.7383907,1,0
0.78232515,-2.7089348,-1.8800606,1,0
0.7305947,-3.0112643,-1.4476639,1,0
0.4357531,-3.6938214,-0.15774222,1,0
0.38954735,-4.4138403,1.1955025,1,0
0.5124885,-4.445423,1.598917,1,0
0.2449683,-2.9948497,2.1894908,1,0
-0.26426888,-1.2671394,2.949534,1,0
-0.8754565,6.0156155,5.190512,1,0
-0.8920098,13.195233,3.7363405,1,0
-0.775579,13.584495,1.1304113,1,0
-0.5261096,10.769908,-3.8213654,1,0
-0.30979145,8.505708,-5.9174857,1,0
0.22698331,0.63595486,-9.598632,1,0
0.98349714,-8.606524,-9.787306,1,0
1.0923505,-12.666684,-8.523043,1,0
1.0163356,-16.234571,-2.4825642,1,0
0.7239888,-15.748038,0.05988832,1,0
-0.35467452,-12.57679,4.1080165,1,0
-1.3682438,-3.637415,7.6461673,1,0
-1.5956608,1.2841988,7.893191,1,0
-0.18502343,2.8603334,5.362484,1,0
0.22568595,0.16525173,4.913243,1,0
-0.70209247,2.8734522,3.4570212,1,0
-3.8503766,23.58102,4.462053,1,0
-4.460523,29.691948,4.005272,1,0
-3.2813609,15.275804,0.045066357,1,0
-2.3224607,2.4213743,0.83931357,1,0
-1.6119654,-11.180137,2.524661,1,0
-1.8197005,-9.694023,-0.63892347,1,0
-1.4417831,-7.083985,-0.22532508,1,0
-0.22841834,-3.0368323,1.3629942,1,0
0.29310703,-1.8797646,1.8728216,1,0
1.4922011,0.95254135,1.6529467,1,0
1.4415405,4.4839115,0.63965493,1,0
0.60206443,4.7320986,0.23249263,1,0
-0.13813618,1.779748,-1.013336,1,0
0.12204245,0.09290409,-0.8424915,1,0
0.21444315,-2.5216532,0.6832539,1,0
-0.24894157,-3.2070675,1.107164,1,0
-0.2127306,-2.4595509,0.6758132,1,0
0.65834224,-0.6685982,-1.2596433,1,0
0.9477693,-0.7312212,-1.5088881,1,0
-0.11743805,-0.12216854,-1.5302286,1,0
-0.92762893,4.134884,-0.1941178,1,0
-0.7397367,4.379978,0.89118093,1,0
-0.5673326,2.025937,1.2251929,1,0
-0.3885919,0.9591007,0.5424508,1,0
0.16416919,-0.6483326,-0.4446108,1,0
0.2937695,-1.6103802,0.09892261,1,0
0.19753781,-2.052071,0.040623426,1,0
0.4299404,-1.1624823,-0.48013958,1,0
0.57273614,-0.073060036,-0.37032974,1,0
0.6707206,1.2074652,0.4236201,0,1
0.88037616,2.7761784,1.2937739,0,1
0.91270363,3.4320211,1.3450589,0,1
0.42932144,2.9799614,1.0197175,0,1
-0.006331533,1.7712173,0.8873591,0,1
-0.5287613,-1.0134869,0.7939738,0,1
-0.24422511,1.4170561,1.2205315,0,1
-0.026385874,3.6329374,1.4697894,0,1
-0.015831769,4.06633,1.9173104,0,1
0.12760168,3.8118887,1.9489741,0,1
0.5569732,3.6600866,1.8873155,0,1
0.50268525,3.3124304,2.9347587,0,1
0.33348823,2.5571203,3.2049417,0,1
0.04716021,-0.31012154,2.7132285,0,1
-0.007033289,-1.7020979,2.2429953,0,1
-0.2624324,-3.4272485,2.521353,0,1
-0.43488187,-4.5184956,3.187188,0,1
-0.61692953,-4.6604433,3.2467418,0,1
-1.2040734,-4.9801397,2.5646684,0,1
-1.4057906,-5.271299,2.1282146,0,1
-2.014259,-5.4557314,0.7497447,0,1
-1.8849922,-3.797223,-0.87626135,0,1
-1.4402989,-3.1438093,-1.3635535,0,1
0.03930652,-2.9610143,-1.7461903,0,1
0.7175036,-3.3180542,-1.8311265,0,1
1.3563914,-3.9200363,-2.4823601,0,1
1.959383,-2.1803865,-3.1072268,0,1
2.5450113,-0.4857769,-2.710583,0,1
2.5559735,1.56108,-1.7231402,0,1
2.9010491,1.0959463,-1.948204,0,1
2.4908876,1.6461697,-2.2077496,0,1
0.46304643,2.9344625,-2.9918137,0,1
0.2869823,2.364006,-4.244945,0,1
0.4003427,2.6795645,-4.969377,0,1
0.10179269,3.4807196,-4.8802376,0,1
-0.40590274,4.82638,-4.525315,0,1
-0.16579758,7.212098,-0.62483823,0,1
0.016773522,7.4345407,2.7662969,0,1
-0.032241344,4.6194057,8.367168,0,1
-0.2271676,2.4110746,8.270829,0,1
-0.5813532,-0.16821003,5.046983,0,1
0.18731415,0.19939995,2.8686724,0,1
0.5858638,0.6839113,1.7680087,0,1
0.76246864,-0.0513525,0.35979357,0,1
0.62147325,-0.4843235,0.023269504,0,1
0.27692917,-0.35830212,-0.98460245,0,1
-0.10301,-0.5260258,-2.4643168,0,1
-0.22708625,-0.81430435,-2.6964061,0,1
-0.3434708,-1.1992188,-2.0791245,0,1
-0.4447382,-1.5169353,-1.95242,0,1
-1.0338514,-2.5747156,-2.4903522,0,1
-1.662855,-2.9204907,-2.4276488,0,1
-1.6866707,-2.889048,-1.9602659,0,1
-1.3547477,-2.5782647,-1.0945015,0,1
-1.3134866,-2.5241008,-1.1373549,0,1
-1.7668651,-2.4536576,-1.7044873,0,1
-1.6224767,-1.5610085,-0.83766305,0,1
-1.0260823,-0.67463017,0.2074815,0,1
0.64024043,1.308835,2.5195885,0,1
1.4647259,1.4447403,2.9319215,0,1
1.9117968,0.24116993,1.6680456,0,1
1.3939432,-0.42965698,0.5028656,0,1
1.4179808,-0.35505962,0.34325498,0,1
1.6511704,-0.5230074,0.46498713,0,1
1.4940006,-0.5359173,0.45467675,0,1
0.8647726,-0.4448986,-0.11192408,0,1
0.4607346,-0.8863144,-0.7981575,0,1
0.46196437,-1.041893,-0.7404012,0,1
0.66985166,-1.1881962,-0.3762267,0,1
0.59766716,-1.3398476,-0.46272546,0,1
0.3239934,-1.7925053,-0.7945138,0,1
0.55801535,-2.0263548,-0.69751287,0,1
0.7427633,-1.9748926,-0.49656868,0,1
0.37527433,-1.5320196,0.017595947,0,1
-0.05540973,-0.7694721,0.58112526,0,1
0.51629895,1.496686,2.5933504,0,1
1.9241996,2.0316153,3.353035,0,1
1.6812317,1.7156057,2.5658956,0,1
0.4740129,0.7927294,0.21469177,0,1
0.10974807,0.39436817,-0.58751273,0,1
-0.14286798,-0.40024185,-1.2163905,0,1
0.1360054,-0.8651562,-0.6643401,0,1
0.39801762,-0.9033041,-0.15001394,0,1
0.76348156,-0.74209976,0.5257743,0,1
0.81899756,-0.42482567,0.62227136,0,1
0.5808578,0.22744274,0.6833726,0,1
0.71852505,0.44593334,1.1979789,0,1
1.0950266,0.4302616,1.3562603,0,1
1.3287475,0.057076454,0.74124146,0,1
1.0062274,-0.039465904,0.36708722,0,1
0.49696654,-0.013437271,0.29237333,0,1
0.38971713,-0.13944244,0.45649457,0,1
0.42009723,-0.21277332,0.49500918,0,1
0.49546024,-0.34841728,0.5085755,0,1
0.51325077,-0.49039268,0.3210982,0,1
0.6319804,-0.72273445,-0.035619378,0,1
0.9307718,-0.9042387,0.04491937,0,1
1.1360031,-0.8387108,0.19317982,0,1
1.701938,-0.5349493,0.7628275,0,1
1.9710323,-0.46137428,1.1455154,0,1
2.0123615,-0.20512676,2.3455954,0,1
0.9739785,1.362566,2.9428585,0,1
0.43220645,1.9512949,2.3731916,0,1
-0.5795525,3.36689,0.4803089,0,1
-1.160413,3.1086874,-0.7759846,0,1
-1.9188435,0.7693825,-2.3823395,0,1
-1.4123737,-0.7756462,-1.8077912,0,1
-1.2745533,-0.8692074,-1.6148016,0,1
-1.5738261,0.13855839,-1.7918806,0,1
-1.8497007,0.39395714,-1.8595054,0,1
-1.541572,-0.123449326,-0.69470966,0,1
-0.8547046,-0.4784584,0.57202363,0,1
-0.78276974,-0.56533146,0.29167688,0,1
-0.9702088,-0.57456017,-0.8677595,0,1
-1.0444074,-0.38751698,-1.16317,0,1
-0.95309734,-0.11165333,-1.0621469,0,1
-0.7295568,-0.28060627,-0.53616226,0,1
-0.6562918,-0.3318472,-0.22544377,0,1
-0.5439835,-0.16619015,0.67604154,0,1
-0.49602985,-0.06712437,1.2095455,0,1
-0.5004217,-0.22612953,1.605523,0,1
-0.5115157,-0.5220232,1.0014818,0,1
-0.5202441,-0.40209293,0.7193975,0,1
-0.42570794,0.03543663,0.5397938,0,1
-0.34772265,0.1381092,0.45730335,0,1
-0.27873945,0.30967903,0.17257892,0,1
-0.16261797,0.4236927,0.029921535,0,1
-0.027974458,0.42026615,0.052400276,0,1
0.519017,0.019328117,0.06342386,0,1
0.9577154,-0.22676373,-0.000666231,0,1
1.4311496,-0.14245701,-0.37410325,0,1
0.9445765,0.6018534,-0.7622823,0,1
0.82914484,0.79173565,-0.9481753,0,1
0.9833065,0.44435024,-1.3203225,0,1
0.907424,0.087184906,-1.6868263,0,1
0.65761465,-0.48021793,-2.2703207,0,1
0.59235716,-0.8749285,-2.1864393,0,1
0.6511337,-0.98295593,-1.938925,0,1
0.6616798,-0.5853243,-0.91171354,0,1
0.59052575,-0.054909706,-0.089431465,0,1
0.721645,0.8623762,1.2895129,0,1
0.8418154,0.3871317,0.50678295,0,1
0.90345377,-0.28850555,-0.07207543,0,1
0.23011103,-0.93259907,-0.8089553,0,1
-0.196751,-0.5138712,-0.9905708,0,1
-0.38305017,0.3486185,-0.7793717,0,1
-0.10615651,0.450037,-0.22128159,0,1
0.09585892,0.24085236,0.04805842,0,1
0.34862855,-0.062874794,0.19237217,0,1
0.40984476,-0.086153984,0.0796322,0,1
0.4950283,-0.09955692,0.10560751,0,1
0.5220827,-0.19513035,0.22155605,0,1
0.49108735,-0.28903008,0.12488562,0,1
0.4706915,-0.16975212,-0.06942406,0,1
0.33732933,0.014307976,-0.22203645,0,1
0.21673974,0.16117191,-0.17256598,0,1
0.5850693,-0.14362621,0.13929258,0,1
0.64737463,-0.41182518,0.119885825,0,1
0.6417748,-0.6834183,0.013531864,0,1
0.6614872,-0.740016,-0.046354994,0,1
0.5215125,-0.43746853,-0.28244162,0,1
0.22301218,0.051340103,-0.71246445,0,1
0.15000543,-0.066586494,-0.95145214,0,1
0.1641947,-0.5383644,-1.2436749,0,1
0.19408448,-0.575449,-1.2744894,0,1
-0.085582316,0.26060677,-0.6527124,0,1
-0.47847676,1.3663626,0.38613263,0,1
-0.171641,1.4526148,0.064079896,0,1
0.5020859,0.24166012,-0.56866175,0,1
0.31778333,0.19769669,0.021052033,0,1
-0.6010037,1.521388,1.234202,0,1
-1.0978827,0.464962,1.3740153,0,1
-1.2898765,-0.08926678,1.17751,0,1
-1.7034814,-0.027160645,0.39478728,0,1
-1.8434297,0.14473248,0.093414366,0,1
-1.89683,0.37008667,-0.46525115,0,1
-1.695504,-0.13626671,-0.8329708,0,1
-1.5319717,-0.42094517,-1.0810099,0,1
-0.8699052,-0.5415535,-2.0130973,0,1
-0.46629715,-0.46197224,-2.4276817,0,1
-0.11412966,-0.46494675,-2.7863288,0,1
-0.9787939,-0.79432964,-2.2935958,0,1
-1.2784275,-0.82438564,-1.7942665,0,1
-0.06935474,-0.43984222,-1.2896196,0,1
1.3655739,-0.014951706,-1.3848898,0,1
3.7199168,1.2069654,-0.38903356,0,1
3.4376113,1.2791224,1.423168,0,1
3.0255382,1.0778694,1.6899266,0,1
2.6742887,-0.41709805,1.5391332,0,1
2.4741106,-1.0204086,1.3496822,0,1
1.8114499,-1.0176601,1.0200698,0,1
1.4416981,-0.56181717,0.724369,0,1
1.4996898,-0.57943916,0.55189776,0,1
1.4663273,-0.7919769,0.31491864,0,1
1.339614,-0.7180729,0.19586836,0,1
1.0406121,-0.52276516,-0.27930692,0,1
0.54560816,-0.6842003,-0.8356481,0,1
0.28148478,-0.6717968,-1.063571,0,1
0.2839231,0.28784084,-1.5882694,0,1
0.71109045,0.45223808,-1.6224425,0,1
1.4980469,-1.2299147,-0.94173694,0,1
1.8292918,-2.4672508,-0.4701692,0,1
1.4753902,-2.2740397,-0.6994239,0,1
0.42322606,-2.3017797,-1.5511354,0,1
0.09238887,-2.5622954,-1.8368211,0,1
0.25687024,-2.923369,-1.6942048,1,0
0.46128806,-2.9650779,-1.6486034,1,0
0.3473016,-2.7954717,-1.870627,1,0
0.41454625,-2.935329,-1.7708675,1,0
0.7090647,-3.227512,-1.5026071,1,0
0.766432,-4.30853,-0.83550847,1,0
0.7074587,-4.735262,-0.5019991,1,0
0.58708906,-4.206133,-0.73457336,1,0
-0.48686725,-4.388559,-0.48059326,1,0
0.18562645,-4.159859,0.49613038,1,0
3.2841806,-2.5716496,1.1446941,1,0
2.0967274,-2.3731942,-1.036283,1,0
-0.19009107,-2.427268,-2.209617,1,0
-4.081357,2.5335112,-1.8428583,1,0
-5.6399517,8.6945715,0.58519983,1,0
-3.0334926,22.510502,3.5032337,1,0
2.4209812,19.833004,6.8151436,1,0
2.9310694,15.225726,7.8457956,1,0
4.4713154,5.4452085,3.2903204,1,0
3.6707354,0.5673008,2.876421,1,0
-3.8398068,-6.274092,4.288485,1,0
-2.0090413,-6.083332,3.6365116,1,0
0.43813932,-4.541346,4.9386144,1,0
1.721945,-4.0561457,3.9805894,1,0
1.2333045,-4.488916,2.8414803,1,0
0.2939329,-4.3098936,2.3329048,1,0
-1.3081887,-2.8909006,3.811674,1,0
-3.157858,-3.5368223,7.6439567,1,0
-2.5080638,-3.2690644,9.35444,1,0
-0.7546808,-1.0821295,5.017474,1,0
0.49627537,0.084023476,1.7436852,1,0
0.6356576,0.9327822,1.2424424,1,0
0.41602686,1.3624516,1.2146201,1,0
0.20628148,2.180912,2.4005072,1,0
0.43567806,2.3552065,2.2751741,1,0
0.70399886,2.6348505,1.6958971,1,0
0.8532958,1.8275537,1.6713903,1,0
0.92640513,1.3705931,1.7618986,1,0
1.3632605,-0.78620243,0.28199488,1,0
1.6784755,-3.2500362,-0.30806583,1,0
1.1041424,-2.634408,2.2283514,1,0
0.76908624,-0.5517149,2.2679183,1,0
0.49566084,-0.7648287,2.05521,1,0
-0.10002181,-1.2555075,1.371513,1,0
-0.00090149,-0.712039,1.330649,1,0
0.16701996,0.26495457,1.4405674,1,0
-0.13795662,-0.05088234,1.1827024,1,0
-0.40430614,-0.19915485,1.0572305,1,0
-1.0646123,0.24076748,0.87824357,1,0
-1.0576338,0.90495014,0.53850687,1,0
0.039674424,2.4745913,0.23302336,1,0
-0.15628172,1.6922197,0.11068635,1,0
-0.6732146,0.63151836,-0.22518551,1,0
-0.2531094,0.6092005,-0.1992684,1,0
-0.0057607,0.7215748,0.15208854,1,0
-0.42960894,-0.3889494,-0.057891168,1,0
0.08891003,-0.42864227,0.08086291,1,0
0.50867486,-0.12882137,0.573123,1,0
0.441329,-0.14198685,1.510906,1,0
-0.35618812,-0.89529514,3.5094762,1,0
-0.6340384,-1.5552931,3.9926171,0,1
0.8272501,-0.50614834,0.9693215,0,1
0.63150394,-0.26462078,0.8491455,0,1
0.1046492,0.24424648,0.57082,0,1
-0.21693447,0.41441345,0.28680283,0,1
-0.7546811,0.89103985,1.284605,0,1
-0.9001161,0.87385845,1.0879142,0,1
-0.6354244,1.2335892,0.59186435,0,1
0.22125018,2.1520023,1.3087732,0,1
0.28218615,2.1768732,1.6702247,0,1
-0.08322418,1.3490171,2.0451722,0,1
-0.5456347,0.2183876,1.9144543,0,1
-0.44848162,-0.16742611,1.6408092,0,1
0.4648974,-1.224371,2.7290003,0,1
0.8396192,-1.8556509,3.111508,0,1
0.6869315,-2.6127357,1.6151181,0,1
0.16988292,-2.8055553,0.15178652,0,1
-0.06296517,-2.5952463,-0.14346759,0,1
-0.46009478,-2.5172586,-0.074973285,0,1
-0.54877955,-2.5465918,0.2573256,0,1
-0.7995256,-2.1895967,0.30497962,0,1
-0.2180759,-0.83309746,-1.2480751,0,1
0.1426903,-0.72447777,-1.6358967,0,1
-1.1809279,-1.5289955,-3.1101737,0,1
-1.3040619,-0.37083435,-3.4956832,0,1
-0.28565276,2.9167938,-2.426386,0,1
-0.3487842,3.3799171,-2.7116942,0,1
-0.007131815,3.9357557,-3.1010914,0,1
1.1630576,7.766452,-0.6550392,0,1
0.93312895,8.363383,1.36436,0,1
-0.26728368,5.474928,0.7750363,0,1
-0.17907761,3.1971474,0.27346554,0,1
0.087293446,2.6713848,0.59702206,0,1
0.59024584,1.9406319,0.864488,0,1
0.65026516,1.32654,0.9876398,0,1
0.501249,0.18088436,1.3766055,0,1
0.27388397,-0.15851307,1.0797282,0,1
0.18018031,-0.2550974,0.85024524,0,1
0.3217384,-0.5159359,1.1266934,0,1
0.41408882,-0.43280697,1.3947293,0,1
0.32183188,0.25933266,1.3125162,0,1
0.2642279,0.44179916,1.0351015,0,1
0.19655514,0.330472,1.0399034,0,1
0.23659742,-0.03353405,1.8508332,0,1
0.28064632,-0.47472668,2.2225559,0,1
0.189874,-1.6828957,1.9774156,0,1
-0.07181703,-3.2952743,0.14368221,0,1
-0.24675603,-3.9914365,-0.7586303,0,1
-0.524079,-4.7783394,-2.3446693,0,1
-0.5927442,-4.437748,-2.9001827,0,1
-0.5769378,-3.658864,-3.0362878,0,1
-0.8125867,-4.3308215,-1.716919,0,1
-1.0199968,-4.7700186,-0.8778251,0,1
-1.214708,-4.227147,0.6137881,0,1
-1.0575101,-3.3390145,1.1609689,0,1
-0.64448684,-1.3975744,2.148089,0,1
-0.54512346,0.12298679,2.0829966,0,1
-0.70141655,0.06648922,1.9276011,0,1
-0.6512407,-0.83329105,1.4577746,0,1
-0.13760099,-0.48418236,0.79966915,0,1
0.45223618,3.128008,-2.5965083,0,1
-0.12147033,2.090272,-3.838207,0,1
0.26713645,0.15224552,-3.647319,0,1
1.2569244,0.77604103,-2.0747905,0,1
1.3351514,1.6117258,-0.64134,0,1
1.2673802,1.4896011,0.7135912,0,1
1.219339,-0.03148651,0.18132119,0,1
1.1656255,-0.59594536,0.0655835,0,1
1.1130825,-0.96450424,0.3293094,0,1
1.074974,-0.70808506,0.6329384,0,1
0.93549436,-0.44882298,1.1787977,0,1
0.6192986,-1.0262127,1.4994853,0,1
0.2504604,-0.8444433,1.8298271,0,1
-0.6393653,0.457201,2.5403233,0,1
-0.87301147,0.7741308,2.567042,0,1
-0.46681124,0.4954939,1.9185946,0,1
0.011598408,0.6127863,1.2392893,0,1
-0.3908006,1.2752733,1.295713,0,1
-1.7136067,1.3747034,0.83453214,0,1
-1.7801175,0.26769066,0.37589103,0,1
-0.3149282,0.21475697,-0.4585489,0,1
-1.4147462,0.63594437,0.037923634,0,1
-3.2549744,0.08678627,-0.0892148,0,1
-4.989224,-0.83986664,-0.9250468,0,1
-4.5205455,-1.2705383,-1.1063771,0,1
-2.413695,-1.7760105,-0.9761981,0,1
-0.61325264,-1.5297794,-0.8732636,0,1
-0.47171423,-1.5069342,-0.94376326,0,1
-1.3910059,-1.5924368,-1.2664819,0,1
-1.7768306,-1.6014957,-1.4271796,0,1
-1.3727417,-1.6264687,-1.2841811,0,1
-0.3793295,-0.71687984,-0.6659588,0,1
0.22079244,0.028458595,-0.23023555,0,1
0.8551376,1.3839121,0.93814576,0,1
0.81666887,1.8887577,1.0212507,0,1
-0.1716657,2.153741,0.26262316,0,1
-2.1126294,2.2464972,-0.31579268,0,1
-2.6095347,1.703845,-0.6904994,0,1
-1.0798469,0.19514751,-0.91852653,0,1
0.17877549,-0.26682854,-0.77882534,0,1
1.0069225,-0.8153496,-0.4656523,0,1
0.58725953,-1.1216955,-0.10754983,0,1
0.34490627,-1.2234488,0.071387485,0,1
-0.19170943,-1.1647482,0.26897395,0,1
-0.5131469,-0.9662752,0.3136201,0,1
-1.1357855,-0.3616066,0.42934352,0,1
-1.0118163,0.57457066,0.4873396,0,1
-0.70194316,0.62884426,0.42939276,0,1
0.05395727,0.27868652,0.35829902,0,1
0.35543737,0.11696434,0.31528836,0,1
0.28923607,-0.3431492,-0.003330193,0,1
0.21880831,-1.0927725,-0.11194639,0,1
0.25397077,-1.2269096,0.01169607,0,1
0.27291775,-0.7288151,0.3631736,0,1
0.33602294,-0.40895557,0.47172105,0,1
0.66864383,-0.10390377,0.68603736,0,1
0.6559082,-0.40293217,0.65821815,0,1
0.5405009,-0.5577688,0.626324,0,1
0.28010368,-0.8747339,0.5160926,0,1
0.34488449,-0.93492603,0.561231,0,1
0.73928773,-0.6436739,1.1171744,0,1
1.1232705,-0.25735378,1.8755984,0,1
1.3434641,-0.0967474,2.209501,0,1
1.305783,0.3742485,2.5419106,0,1
0.99502414,0.48601723,2.4305909,0,1
-0.06507328,0.43380928,1.4681916,0,1
-1.1641302,1.7902517,0.44775155,0,1
-1.29622,2.504981,0.14528883,0,1
-1.6766548,1.5170527,-1.7887237,0,1
-1.7523556,0.987978,-2.6276903,0,1
-1.9603968,1.4253445,-2.7707734,0,1
-3.2039948,1.9618034,-3.009159,0,1
-3.160131,1.4900646,-2.892621,0,1
-1.63885,-0.7837372,-1.9063053,0,1
-1.1384825,-1.4601355,-1.3918062,0,1
-0.9860611,-1.0314741,-0.9603454,0,1
-1.1546016,-0.51567745,-1.223769,0,1
-1.1560031,-0.4542818,-1.3909672,0,1
-0.9010129,-0.29484367,-1.3549585,0,1
-0.7614051,-0.21644497,-1.1693333,0,1
-0.74505913,-0.18898773,-0.84702575,0,1
-0.82943827,-0.009854317,-0.37008083,0,1
-0.84260803,0.03318119,-0.19217768,0,1
-0.9109877,-0.06556511,-0.21627106,0,1
-0.9821242,-0.13613987,-0.29912105,0,1
-0.82152754,-0.07504082,-0.40917456,0,1
-0.42641374,-0.10071087,-0.55119985,0,1
-0.104643635,-0.03389454,-0.4148868,0,1
0.20483361,-0.08332443,0.5824013,0,1
0.19078004,-0.17178345,0.79817384,0,1
0.4974652,-0.37301254,0.33808154,0,1
0.557348,0.07090187,-0.33795583,0,1
0.4040098,0.16387272,-0.65024847,0,1
-0.0753468,-0.05005932,-1.5673494,0,1
-0.23706186,-0.037281036,-1.9953244,0,1
-0.060771286,-0.05063343,-1.9195296,0,1
0.4601453,-0.3099203,-1.2118866,0,1
0.5445454,-0.38597202,-1.0054744,0,1
0.5611706,-0.113082886,-0.7675085,0,1
0.63105685,-0.082365036,-0.6707674,0,1
0.7573124,-0.20890045,-0.6281527,0,1
0.56167626,0.13271046,-0.6240752,0,1
0.38782352,0.28592873,-0.6887217,0,1
0.2014218,0.113453865,-0.7908889,0,1
0.18836285,-0.017352104,-0.6502653,0,1
0.24409346,-0.11762333,-0.21320143,0,1
0.23822004,-0.15516472,0.090156086,0,1
0.20618457,-0.12202263,0.19535682,0,1
0.19026148,-0.055877686,0.2764415,0,1
0.21720119,-0.02735424,0.2666867,0,1
0.19043362,-0.00373745,0.25588113,0,1
0.11810739,0.006340981,0.2325642,0,1
0.089099854,0.004404068,0.20254919,0,1
0.03444301,0.07441521,0.11669725,0,1
0.032016523,0.042675972,0.07126208,0,1
0.053399216,-0.050945282,0.08108762,0,1
0.050869208,0.027700424,0.17523937,0,1
0.027399145,0.030447006,0.14413345,0,1
-0.013343086,-0.02057457,0.04017003,0,1
-0.05621083,-0.03146553,-0.01949916,0,1
-0.096286654,-0.037174225,-0.10921127,0,1
-0.12087666,0.04321289,0.020149596,0,1
-0.12534007,0.033392906,0.08078062,0,1
-0.096267566,0.026925087,-0.004190216,0,1
-0.104671635,0.004692078,-0.040948372,0,1
-0.10414297,-0.006856918,-0.04563863,0,1
-0.06127418,-0.051891327,-0.07178412,0,1
-0.03219876,-0.07394886,-0.050923057,0,1
-0.031660262,0.030621529,-0.017295202,0,1
-0.037872493,0.06584549,0.007111559,0,1
0.021757163,-0.059121132,0.045996338,0,1
0.05665977,-0.07754612,0.03415229,0,1
0.057597913,-0.012167931,0.061829004,0,1
0.043485448,0.03459835,0.110844314,0,1
0.04653342,0.008069038,0.106311984,0,1
0.08685017,-0.034867287,0.10129306,0,1
0.09971286,-0.007154465,0.0978036,0,1
0.09472801,-0.011897087,0.10723862,0,1
0.07817848,-0.022026062,0.12445143,0,1
0.09625795,-0.03512764,0.13790245,0,1
0.1096676,-0.021790504,0.108391315,0,1
0.11945823,-0.030367851,0.015511842,0,1
0.1091122,-0.027451515,-0.024488553,0,1
0.104724295,0.007549286,-0.008635901,0,1
0.12574929,0.047987938,0.034153916,0,1
0.09337834,-0.010997772,-0.014145475,0,1
0.074886516,-0.016497612,-0.1043576,0,1
0.04077794,-0.000771523,-0.112383656,0,1
-0.015339784,0.020599365,-0.11777755,0,1
-0.028527131,0.021582603,-0.11147316,0,1
0.006279359,-0.022461891,-0.065123275,0,1
-0.004265254,-0.010780334,5.23E-05,0,1
-0.007476651,-0.009537697,0.026453532,0,1
0.008852529,-0.019116402,0.020147104,0,1
0.002132898,-0.038630486,-0.028331101,0,1
-0.002210447,-0.019992828,-0.047896035,0,1
-0.017794084,-0.020820618,-0.056491554,0,1
-0.002727591,-0.036431313,-0.082514174,0,1
-0.000940312,0.00177002,-0.125119,0,1
-0.002501754,0.016591072,-0.079979695,0,1
0.030988818,-0.018508911,-0.03089464,0,1
0.023003114,-0.048106194,-0.065508455,0,1
0.043415077,-0.025407791,-0.07907692,0,1
0.119683556,0.011730194,0.0084401,0,1
0.14696781,-0.008829117,0.032513052,0,1
0.018383866,0.019838333,-0.08721601,0,1
-0.104080155,0.048311234,-0.33036688,0,1
-0.066923596,-0.006948471,-0.30369416,0,1
0.033473212,-0.11631584,-0.091759674,0,1
0.06865098,-0.1272316,-0.00331906,0,1
0.07436933,-0.016046524,0.017259939,0,1
0.03705859,0.09136391,-0.124034114,0,1
0.055789486,0.03111267,-0.18046652,0,1
0.05126115,-0.028021812,-0.15837698,0,1
0.0173498,0.000227928,-0.13100508,0,1
0.09539773,-0.07297993,0.053093635,0,1
0.15338176,-0.074313164,0.14139852,0,1
0.10656524,-0.03741455,0.065148,0,1
0.05157736,0.00898838,-0.071441635,0,1
0.03692424,0.013916016,-0.071983516,0,1
0.026968174,-0.04329872,-0.032224353,0,1
0.05756651,-0.020833015,0.002536209,0,1
0.07132938,-0.029781342,0.017699903,0,1
0.108769655,-0.014383316,0.05057895,0,1
0.116304934,0.001924515,0.06108445,0,1
0.069322556,-0.000318527,-0.02710781,0,1
0.01993299,-0.00539875,-0.06710495,0,1
0.043578297,-0.010525703,-0.047003724,0,1
0.08558664,0.019608498,-0.000162119,0,1
0.0692593,0.051086426,0.014878001,0,1
0.06942937,-0.000930786,0.0651819,0,1
0.076828904,-0.045892715,0.079165615,0,1
0.058340214,-0.040272713,0.022738248,0,1
0.008339693,-0.020515442,-0.07225078,0,1
-0.000483254,0.003969193,-0.100715764,0,1
0.0315135,-0.002820015,-0.09690413,0,1
0.05322697,-0.00578022,-0.01896701,0,1
0.03829497,-0.001893044,0.018076157,0,1
0.04148266,-0.006989479,0.030943936,0,1
0.05250538,-0.00696373,0.007869184,0,1
0.013020631,-0.01193428,-0.09656059,0,1
-0.007869868,-0.018901825,-0.090200104,0,1
0.001091456,0.000413895,-0.045271315,0,1
0.053179935,0.0367918,0.045589533,0,1
0.043881312,0.031546593,0.06126343,0,1
0.006229064,-0.041998863,0.018727507,0,1
-0.009760018,-0.10732651,-0.09142122,0,1
-0.012577834,-0.03920269,-0.093053296,0,1
0.006921549,0.028219223,0.007453402,0,1
0.018252833,0.0116148,-0.004805655,0,1
0.029456314,-0.025554657,-0.063647956,0,1
0.015319604,-0.039583206,-0.046577275,0,1
-0.003405322,-0.039631844,-0.044150695,0,1
-0.035933137,-0.011868477,-0.050395623,0,1
-0.028274106,-0.011277199,-0.05807755,0,1
0.029106166,-0.001793861,-0.040908813,0,1
0.037088614,-0.030845642,-0.007084154,0,1
0.030029614,-0.027785301,-0.005059445,0,1
0.030511599,0.020392418,-0.008844617,0,1
0.0151418,0.034563065,0.034680154,0,1
0.025317617,-0.037403107,0.071260996,0,1
0.010213643,-0.08641815,-0.00372233,0,1
0.01414012,-0.049700737,-0.0262926,0,1
-0.012362911,0.010430336,-0.040450122,0,1
-0.021289846,-0.008134842,-0.026894486,0,1
0.016583692,-0.032898903,-0.024567064,0,1
0.05837412,-0.018087387,-0.022774592,0,1
0.0731444,-0.013403893,0.005025368,0,1
0.102932975,0.002930641,0.08560006,0,1
0.10087484,-0.000403404,0.075749986,0,1
0.07788524,-0.012493134,0.02480451,0,1
0.032575075,0.010106087,0.025317414,0,1
0.041893613,0.017240524,0.052063137,0,1
0.051974386,-0.011693955,-0.033344597,0,1
0.06934992,0.003489494,-0.047741037,0,1
0.09079939,-0.00235939,0.0786943,0,1
0.0508798,-0.055117607,0.020182813,0,1
0.027183738,-0.016166687,-0.013712769,0,1
0.002170663,-0.021577835,-0.03421997,0,1
0.025116328,-0.04323101,-0.062029444,0,1
0.056064926,0.008481026,-0.08761074,0,1
0.04330151,-0.002908707,-0.017045747,0,1
0.05843333,-0.005459786,0.000856178,0,1
0.1268107,0.016993523,0.04089805,0,1
0.14647745,-0.008205414,0.039212383,0,1
0.113262944,-0.039357185,0.025251945,0,1
0.09877176,0.02171135,0.012652602,0,1
0.086459875,0.014349937,0.010276685,0,1
0.018097928,0.011054039,-0.052286655,0,1
0.003174728,0.010706902,-0.050545063,0,1
0.03474892,-0.01350975,0.026422195,0,1
0.04381667,-0.068686485,0.07320579,0,1
0.06846288,-0.046125412,0.0991803,0,1
0.09229161,-0.015827179,0.09843366,0,1
0.08491428,-0.015354156,0.09475592,0,1
0.095667765,0.054512024,0.14430317,0,1
0.11006972,0.004668236,0.15142171,0,1
0.099766865,-0.027062416,0.12278604,0,1
0.0574361,0.012615204,0.07192649,0,1
0.04143917,0.004813194,0.046139568,0,1
0.02643436,-0.0469532,0.01879218,0,1
0.0150674,-0.037454605,0.046395734,0,1
0.026556572,-0.044258118,0.07629797,0,1
0.033639424,0.006243706,0.092976,0,1
-0.000116127,0.033960342,0.05811575,0,1
-0.019087918,-0.073265076,-0.06783239,0,1
0.047730733,-0.11162758,-0.10281181,0,1
0.03827463,-0.06546879,-0.10912005,0,1
-0.0124093,0.042907715,-0.097226106,0,1
-0.00339806,0.05777836,-0.046081327,0,1
0.09311128,-0.022729874,0.04489404,0,1
0.122620024,-0.014035225,0.04615115,0,1
0.10002817,-0.004785538,0.044128228,0,1
0.05839404,-0.007925987,0.069962665,0,1
0.049503602,-0.016915321,0.07346925,0,1
0.037184842,-0.053583145,-0.008882537,0,1
0.048174635,-0.020525932,0.013645163,0,1
0.08919702,0.004281998,0.05372453,0,1
0.069519095,-0.015571594,0.03136411,0,1
0.028573817,0.033685684,-0.016331833,0,1
-0.040093724,-0.010499001,-0.013727769,0,1
-0.08093409,-0.13638783,-0.04401901,0,1
-0.11732734,-0.025177956,-0.09308392,0,1
-0.14493595,0.04709339,-0.0944606,0,1
-0.07210179,0.028841019,-0.058685675,0,1
-0.003635203,-0.14651966,0.029744161,0,1
-0.15641531,-0.17078495,-0.1725409,0,1
-0.27818492,-0.23786068,-0.30156857,0,1
-0.6183497,-0.39383125,-0.2592779,0,1
-0.8985739,-0.46831226,-0.04976225,0,1
-1.4317775,-0.1684494,0.37476876,0,1
-1.8419585,0.08979511,-0.20826721,0,1
-2.277881,-0.019908905,-0.7428851,0,1
-2.5078766,-0.3526125,-1.5870006,0,1
-2.1754336,-0.19180202,-1.1600351,0,1
-0.663823,0.41850662,0.8224252,0,1
0.8665445,-0.21262836,1.3811846,0,1
1.8510184,-1.1443148,1.127635,0,1
2.094146,-1.6954222,-0.16345888,0,1
0.7566742,-0.19095612,-1.3124553,0,1
-1.0940351,3.2209816,-3.1028972,0,1
0.120958924,1.5349674,-2.279038,0,1
0.7449711,0.47329903,-1.5708202,0,1
0.38743642,-0.82085514,-1.2786634,0,1
-0.07166162,-1.2741747,-1.3533912,0,1
-0.37097254,-1.6757679,-1.1849555,0,1
-0.5835724,-1.4008217,-1.0880269,0,1
-0.7798444,-1.1119375,-1.179134,0,1
-0.97307944,-0.7791662,-1.4764483,0,1
-0.94680214,-0.51250744,-1.5787201,0,1
-0.9932034,0.6073246,-1.6889565,0,1
-1.0237665,1.4327688,-2.1369436,0,1
-0.8343452,2.0690308,-2.2157345,0,1
-0.40852696,3.6683865,-1.0752709,0,1
0.13874304,3.4595108,-0.23261462,0,1
2.087915,1.4399338,0.21015543,0,1
2.446496,-0.00428772,1.2318101,0,1
2.1015508,-0.06739807,1.9037478,0,1
1.4209188,-0.23911858,1.980004,0,1
0.96297336,-0.45220184,1.5555706,0,1
0.79549754,-0.41820335,1.4279324,0,1
0.64505696,-0.75925255,1.3418828,0,1
0.39658827,-1.09653,1.0414325,0,1
-0.13551383,-1.572464,0.44935185,0,1
-0.33872348,-1.6739893,0.2643445,0,1
-0.48122668,-1.6443853,0.043321848,0,1
-0.5442285,-1.492796,-0.3872009,0,1
-0.8681907,-1.4794874,-0.7763602,0,1
-1.1322821,-1.1812868,-0.9744158,0,1
-0.70823884,-0.94123936,-0.565117,0,1
-0.28402826,-0.2862501,-0.02671881,0,1
-1.2890521,0.39671516,-0.95219207,0,1
-2.050986,0.89121056,-1.917346,0,1
-1.8062563,2.562005,-2.5087845,0,1
-0.9696901,2.962,-2.035501,0,1
-0.12400984,2.2010136,-0.038176488,0,1
1.4817158,1.1439304,3.3667784,0,1
2.361556,0.91828823,3.667312,0,1
2.0705457,2.1070652,0.94230473,0,1
1.4219587,2.6778555,-0.31292856,0,1
0.90598994,0.39888,-0.18852058,0,1
0.75496113,-2.5425158,0.017336458,0,1
0.45696473,-2.574193,-0.26668674,0,1
0.44741136,-2.4303498,-0.3353253,0,1
0.72362584,-2.568008,-0.22249448,0,1
0.5309764,-2.477096,-0.6457209,0,1
-0.022010952,-1.8880043,-1.2096044,0,1
-0.41263226,-1.4323549,-1.5584264,0,1
-1.0911766,-0.80484104,-1.884354,0,1
-0.70497835,-0.3366518,-1.3976176,0,1
0.93391734,2.4331503,-0.50656134,0,1
0.07293984,3.4612732,-0.5440216,0,1
-0.22720507,4.179577,0.6023805,0,1
1.7874902,3.4608269,2.382583,0,1
1.8479847,1.3683729,1.9923773,0,1
0.7052868,-0.68365765,2.5851324,0,1
1.4362072,0.09542942,3.9774017,0,1
1.9395252,-0.298028,3.9710054,0,1
2.1676366,-1.294632,3.1165228,0,1
1.6064355,-1.3557425,2.5512347,0,1
-0.38416037,-1.0528746,0.93063986,0,1
-1.3733208,-1.1231947,0.16026631,0,1
-1.1604538,-1.1932659,0.31147254,0,1
-0.66114706,-1.4421043,0.43898088,0,1
-0.77809304,-1.3328304,0.29116267,0,1
-1.1617093,-1.1444311,0.09093547,0,1
-1.0003948,-1.3361082,0.29862317,0,1
-0.7640644,-1.0261879,0.4151314,0,1
-0.53642595,0.25357628,0.26454103,0,1
-0.7279748,0.5348053,-0.04691659,0,1
-0.62416255,0.8792429,-0.38437313,0,1
-0.03895101,2.2483683,1.2572423,0,1
-0.295918,2.1387072,2.5098078,0,1
2.2799988,0.09579277,2.5854857,0,1
3.282331,-0.85621834,1.6559505,0,1
0.7162804,1.2539644,-0.21938963,0,1
-1.1541746,3.761139,-0.6681695,0,1
-0.24105199,1.9383049,-0.06143534,0,1
1.4991099,-1.8595147,0.5396061,0,1
1.5954393,-1.860219,0.5305523,0,1
0.9048869,-0.6703329,0.35967106,0,1
0.18992996,-0.96736526,0.28550088,0,1
-0.06273879,-1.185894,0.3321558,0,1
-0.71732044,-0.86510086,0.17745467,0,1
-0.9537522,-0.6882906,0.1623398,0,1
-1.2882183,-0.642993,0.7518265,0,1
-1.084387,-0.79459286,1.578811,0,1
-0.5712408,-1.1093655,1.449511,0,1
0.9562437,-1.1247082,0.34516996,0,1
2.0425124,-0.50418663,-0.19341063,0,1
3.9181333,1.1783161,-1.029321,0,1
4.7472577,2.1960106,-0.70501745,0,1
3.4361076,1.7947435,0.38565505,0,1
-0.5773104,-0.102622986,3.811641,0,1
-0.83775675,-0.910223,4.6086864,0,1
1.8864199,-1.1004372,3.0122638,0,1
3.1735024,-0.22565937,0.12125921,0,1
2.9851744,-0.08080101,-0.66349864,0,1
2.2137837,0.1624546,-0.8386205,0,1
1.9065528,0.21869946,-0.7655752,0,1
1.8646796,-0.344759,-0.46158546,0,1
1.8273585,-0.59887505,0.3314842,0,1
1.7034796,-0.43158245,0.564764,0,1
1.4436973,-0.4775076,-0.53198624,0,1
1.3399804,-1.0868206,-1.5555415,0,1
0.8050172,-3.1025286,-1.9256332,0,1
0.36006188,-3.2649374,-0.3113159,0,1
0.31586492,-2.1880035,-0.061821327,0,1
0.31382072,-1.1249924,-0.15335298,0,1
0.29382586,-1.585042,-0.15895641,0,1
0.22949703,-1.4450016,-1.2858119,0,1
-0.11340985,-0.5656023,-0.3285598,0,1
0.28158018,-0.90238476,1.217063,0,1
0.016269624,-0.21730518,1.9811752,0,1
-0.61223364,0.2391901,0.9177212,0,1
-0.99363875,0.6498451,-0.21374738,0,1
-0.27114424,0.32520103,0.71272856,0,1
-0.09748669,0.14174938,0.7959019,0,1
-0.60417646,2.8540554,-0.8508279,0,1
-0.74104303,3.8085613,-1.7241294,0,1
-0.40540084,-1.5986938,-0.11110611,0,1
0.20279734,-1.9624262,0.58048064,0,1
0.39967838,-1.6828957,0.6696965,0,1
0.30203357,0.44877148,0.23933762,0,1
0.10633981,2.3119984,-0.33333725,0,1
-0.20481926,5.159067,-0.19036847,0,1
-0.07719527,6.698949,0.7060845,0,1
0.18378001,6.6624746,1.3710965,0,1
0.31358248,4.5361023,1.4953351,0,1
0.3800127,3.03681,1.4516896,0,1
0.22209929,0.107512474,0.85411197,0,1
-0.0960845,-1.593257,0.005922548,0,1
-0.22527188,-1.981524,-0.3369413,0,1
-0.37659726,-2.7886786,-0.47106075,0,1
-0.24287933,-2.6129322,-0.29671904,0,1
0.13681154,-1.1210356,-0.04350114,0,1
0.002764899,0.34643745,0.19293962,0,1
-0.22994584,0.72905445,0.537008,0,1
0.005222365,1.3215284,0.766036,0,1
0.105710395,1.2472153,0.118205234,0,1
-0.26768455,0.6722841,-0.120490655,0,1
0.28150555,0.2811842,-0.057803035,0,1
0.51747,-0.011672974,0.13154307,0,1
0.54166913,-0.27977943,0.45660654,0,1
0.2570657,-0.42243958,0.39985922,0,1
-0.49435934,-0.028287888,0.13614555,0,1
-0.4971803,-0.012095451,0.23418458,0,1
-0.3845853,-0.14980698,0.19416204,0,1
-0.29385358,-0.081578255,0.014702491,0,1
-0.23578107,0.08261013,0.21646692,0,1
-0.10673529,0.15995693,0.82840985,0,1
-0.08106333,-0.07418537,0.78195834,0,1
-0.064894885,-0.07412624,0.6131065,0,1
-0.30634794,-0.028309822,0.3562346,0,1
-0.43641907,0.03197193,0.22387615,0,1
-0.4284429,0.010150909,0.12547714,0,1
-0.20814072,-0.22449398,0.074070714,0,1
-0.097165756,-0.28050613,0.02038705,0,1
0.016223324,-0.10016441,-0.13078323,0,1
0.009926621,0.027669907,-0.2292337,0,1
-0.01888331,0.1712141,-0.37915298,0,1
-0.0904876,0.06531143,-0.21123391,0,1
-0.086439595,0.008628845,-0.1325498,0,1
-0.018727973,0.110313416,-0.10120386,0,1
-0.029247412,0.14836597,-0.05689395,0,1
-0.028695893,0.11251831,0.02063505,0,1
0.000106978,0.08324623,-0.035154697,0,1
0.00072394,0.06373596,-0.014870429,0,1
-0.026164412,0.1017704,0.010816492,0,1
-0.041030627,0.110863686,0.032460153,0,1
-0.039049905,0.0996809,0.06265605,0,1
-0.08283391,0.040219307,0.028068602,0,1
-0.09555914,0.018351555,0.04781331,0,1
-0.08505952,0.010530472,0.08555181,0,1
-0.08446115,-0.009298325,0.08079087,0,1
-0.091962725,-0.004271507,0.063054785,0,1
-0.14541984,0.019766808,0.053395834,0,1
-0.15354529,0.012916565,0.05965576,0,1
-0.119520724,0.010051727,0.063986056,0,1
-0.10349947,0.003011704,0.077673525,0,1
-0.11672584,0.04024887,0.05392471,0,1
-0.111834824,0.020018578,0.06495328,0,1
-0.11487505,0.008888245,0.08593038,0,1
-0.09251963,0.028348923,0.08881337,0,1
-0.064311154,0.041135788,0.07085505,0,1
-0.045847997,0.060282707,0.04097939,0,1
-0.07265211,0.04605198,-0.018676981,0,1
-0.06860403,0.031169891,-0.041700874,0,1
-0.022436338,0.022852898,-0.007585022,0,1
-0.029061135,0.044132233,0.03517397,0,1
-0.075987525,0.04400921,0.08576698,0,1
-0.11471912,-0.000372887,0.10123035,0,1
-0.13686298,-0.032452583,0.1556169,0,1
-0.13775875,-0.11208248,-0.110646114,0,1
-0.20404384,-0.15700817,-0.3216645,0,1
-0.15873283,-0.050271034,-0.4907297,0,1
0.12814188,-0.15874767,-0.1073808,0,1
0.14360565,-0.15903091,-0.068805605,0,1
0.11803506,-0.021242142,-0.10838908,0,1
0.14980732,0.12448025,-0.028889693,0,1
0.13561232,0.21049118,0.24748631,0,1
-0.036315937,0.27633667,0.26541626,0,1
-0.02166393,0.44572258,0.15665242,0,1
0.13236333,0.5365572,0.3290723,0,1
0.1012432,0.36363792,0.4514766,0,1
-0.037948117,0.17809296,0.4175265,0,1
-0.098107345,0.005807877,0.46630192,0,1
-0.08546298,0.02915001,0.53129977,0,1
-0.04878977,0.39205456,0.58511037,0,1
0.070173666,0.44439602,0.6089942,0,1
0.080219954,0.20427799,0.58708304,0,1
0.05911793,0.11765385,0.49336913,0,1
0.05507812,0.08045864,0.398572,0,1
0.16255042,0.001152992,0.30405006,0,1
0.17305484,0.022737503,0.32132137,0,1
-0.066200085,-0.07476902,0.4047015,0,1
-0.3347627,-0.14370537,0.32024473,0,1
-0.3250233,-0.07589054,0.46021304,0,1
-0.3053183,0.113780975,0.93580526,0,1
-0.14374773,0.40188217,0.9852844,0,1
0.29754567,1.4209776,1.4471583,0,1
0.35787064,2.4853315,1.3807833,0,1
0.39378825,3.1899862,1.2175255,0,1
-0.22981107,3.1289892,0.3783086,0,1
-0.44021943,2.3911886,0.019299299,0,1
0.042002335,2.1472168,0.6476079,0,1
0.030765742,2.1656666,0.5678374,0,1
0.04755179,1.9840736,0.37030962,0,1
0.2251753,1.5328474,0.26863155,0,1
0.360147,1.2580299,0.3604415,0,1
0.58243835,0.63886833,0.40821373,0,1
0.59138894,-0.5475788,0.123066925,0,1
0.65624994,-1.2065783,-0.05158484,0,1
0.5951384,-2.2091312,-0.37075952,0,1
0.6322287,-2.8201513,-0.3297613,0,1
0.77115136,-3.4586225,0.18305394,0,1
0.76490265,-2.714829,0.53145176,0,1
0.66220254,-1.9867296,0.4212033,0,1
0.6101247,-0.77496433,0.06769095,0,1
0.74237347,-0.4682684,0.005417422,0,1
0.80131197,-0.6341448,-0.3406067,0,1
0.234126,-1.1346521,-0.95601505,0,1
-0.09980479,-0.9607868,-1.1832718,0,1
-1.0687044,0.44535923,-2.0806925,0,1
-1.591484,0.7966318,-2.3532043,0,1
-1.9341135,0.2565155,-1.3518606,0,1
-1.7331065,-0.644227,0.22553849,0,1
-1.6303406,-1.2640371,0.71678436,0,1
-1.602495,-2.1493063,0.4684035,0,1
-1.6282151,-2.3164873,0.04663828,0,1
-1.7045151,-2.2345772,-0.22464806,0,1
-1.8595262,-1.4729481,-0.08956903,0,1
-1.8767369,-0.7501707,-0.058452427,0,1
-1.4818771,0.79490566,-0.17414063,0,1
-1.2645036,1.0630674,-0.13829869,0,1
-1.0096483,0.44384384,0.9918799,0,1
-0.43779287,-0.71555996,2.427766,0,1
-0.27501947,-0.94119835,2.7075918,0,1
-0.17489195,-0.36126995,2.4286242,0,1
0.046687663,0.23770046,2.0017712,0,1
-0.051684536,0.9862299,0.39046392,0,1
-1.5292388,0.6503067,-1.2452044,0,1
-1.7952719,0.013730049,-1.0194567,0,1
-1.2819046,-0.8095684,0.026765496,0,1
-1.0634277,-0.38978577,-0.07594696,0,1
-0.8929673,0.29232407,-0.3458083,0,1
-0.39204174,-0.3442707,-0.19502513,0,1
-0.0923966,-0.3168831,-0.212789,0,1
-0.13661152,0.08719349,-0.4398269,0,1
-0.30511522,-0.10185146,-0.4641639,0,1
-0.2925446,-0.38524628,-0.5818197,0,1
-0.04589452,-0.17763805,-0.4530148,0,1
0.1261086,-0.101468086,-0.36087608,0,1
0.32487783,0.20953941,-0.2744036,0,1
0.21415913,0.2831869,-0.26455206,0,1
-0.17925088,0.058781624,-0.43680277,0,1
-0.035956457,-0.0425663,-0.6745424,0,1
0.25917724,0.13670826,-0.5856358,0,1
0.77251047,0.33785915,0.2787798,0,1
0.76391494,0.21917248,0.7106254,0,1
0.62923855,-0.1406107,1.1327776,0,1
0.1708836,-0.10674095,0.7813183,0,1
-0.40513286,0.11955452,0.21981537,0,1
-0.73026013,0.36173153,-0.78236437,0,1
-0.42580444,0.18918133,-0.9374486,0,1
-0.36321282,-0.37540913,-0.6364624,0,1
-0.6093331,-0.25113583,-0.49453878,0,1
-0.43640468,-0.056088448,-0.23345074,0,1
-0.010032043,0.16182423,0.62100524,0,1
-0.01431188,0.10814381,0.9268413,0,1
-0.09465438,-0.06563568,1.0040872,0,1
-0.08375913,-0.080581665,0.76144457,0,1
-0.15264043,-0.052850723,0.55017596,0,1
-0.36186337,-0.080851555,0.23994477,0,1
-0.41845858,-0.10128021,0.14102088,0,1
-0.4409208,-0.029738426,-0.027598381,0,1
-0.3984952,-0.001784325,-0.1689091,0,1
-0.3580337,-0.003581047,-0.13713773,0,1
-0.24066064,-0.048171997,0.15041459,0,1
-0.19765836,-0.04582405,0.32192895,0,1
-0.17394668,-0.016766548,0.5785159,0,1
-0.18844837,-0.040724754,0.5322407,0,1
-0.19325718,-0.026581764,0.42109713,0,1
-0.15747973,-0.023122787,0.32596478,0,1
-0.15340728,-0.044465065,0.2912929,0,1
-0.16259521,-0.008058548,0.14036663,0,1
-0.15134674,0.026670456,0.10706481,0,1
-0.15626639,0.0320158,0.14571577,0,1
-0.1828314,0.014518738,0.23189561,0,1
-0.1963417,-0.005138397,0.25653473,0,1
-0.18349975,-0.006163597,0.26723647,0,1
-0.12230861,-0.00262928,0.23428383,0,1
-0.12743193,0.009331703,0.21393251,0,1
-0.1549103,-0.016036034,0.16048782,0,1
-0.14403597,-0.03469181,0.14737771,0,1
-0.09979382,-0.010939598,0.19107816,0,1
-0.081270866,-0.000851631,0.21698974,0,1
-0.11992811,-0.002646446,0.20851225,0,1
-0.12834707,-0.006258011,0.23935622,0,1
-0.10148564,-0.01085186,0.25313658,0,1
-0.08689039,0.040042877,0.23920873,0,1
-0.07330461,0.02140522,0.15396413,0,1
-0.077943705,-3.91E-05,0.11586007,0,1
-0.08395696,-0.02763462,0.16815676,0,1
-0.062425863,-0.010622978,0.18623935,0,1
-0.06847072,0.045233727,0.17567328,0,1
-0.081167504,0.005418778,0.15804298,0,1
-0.024957823,-0.064676285,0.17072159,0,1
-0.002401028,-0.031355858,0.16608399,0,1
-0.004793457,0.006601334,0.046968386,0,1
0.0812809,0.014935494,-0.11035895,0,1
0.27479365,0.04869461,-0.079521164,0,1
0.2747748,-0.001893044,-0.07906245,0,1
0.007969424,-0.1786623,-0.15695213,0,1
0.047149494,-0.11399555,-0.12659848,0,1
0.42217922,0.24655914,0.034312658,0,1
0.56592435,0.23671818,-0.06393981,0,1
0.5842698,0.115428925,-0.08072743,0,1
0.6356407,-0.09453297,0.32383204,0,1
0.6042694,-0.04571724,0.6156698,0,1
0.25517157,0.18200302,0.7818949,0,1
-0.30598605,0.14775372,0.32032546,0,1
-0.4457205,0.028265953,0.20988621,0,1
-0.4212168,-0.3046484,0.20526877,0,1
-0.34911776,-0.37031746,0.25139686,0,1
-0.36667764,-0.21026707,0.37720385,0,1
-0.49427176,-0.047179222,0.20253892,0,1
-0.53976226,-0.07340813,0.16254519,0,1
-0.5392024,-0.15745068,0.4460256,0,1
-0.45986444,-0.15172291,0.6873203,0,1
-0.27312267,-0.08438587,0.9905438,0,1
-0.31418386,0.029837608,0.9224758,0,1
-0.38683292,-0.074769974,0.83891934,0,1
-0.50169206,-0.31780148,0.5840727,0,1
-0.5447173,-0.27415562,0.44033647,0,1
-0.528255,-0.04263878,0.16998239,0,1
-0.44876802,0.11602974,-0.104319975,0,1
-0.49182552,0.12399769,-0.19662496,0,1
-0.63853675,0.023487091,-0.17511667,0,1
-0.64560723,-0.015582085,-0.0436289,0,1
-0.48004973,-0.06811333,0.30816162,0,1
-0.38789535,-0.18906784,0.48541334,0,1
-0.3904243,-0.15342617,0.43514907,0,1
-0.3586709,0.041423798,0.13443801,0,1
-0.29710945,0.10421181,0.020255916,0,1
-0.25749665,0.026124954,0.11468942,0,1
-0.29873392,-0.16127396,0.28491074,0,1
-0.27885193,-0.1525259,0.34585744,0,1
-0.18823373,0.023938179,0.46250206,0,1
-0.16780621,0.057724953,0.48818374,0,1
-0.18662706,-0.012623787,0.49640432,0,1
-0.15639932,0.007775307,0.37373713,0,1
-0.10755326,0.05643177,0.24083142,0,1
-0.03959698,0.10721207,0.09362033,0,1
-0.061541334,0.09952927,0.079441145,0,1
-0.10732296,0.013508797,-0.04099093,0,1
-0.1216438,-0.1700573,0.003998425,0,1
-0.14736429,-0.21374989,0.13013309,0,1
-0.16493739,-0.08673859,0.31140912,0,1
-0.1316641,0.025099754,0.31802627,0,1
-0.12804277,0.089286804,0.28189442,0,1
-0.12525405,-0.016860008,0.215589,0,1
-0.11699991,-0.069434166,0.22409983,0,1
-0.083523676,-0.15780449,0.27867982,0,1
-0.044722326,-0.14102936,0.22874296,0,1
0.01371338,0.03449917,0.030292371,0,1
0.000141213,0.088110924,-0.063046135,0,1
0.015118388,0.05804634,-0.03936821,0,1
-0.003007484,-0.073898315,0.040056996,0,1
-0.037738595,-0.105986595,0.12394847,0,1
-0.023624651,0.05237007,0.33921105,0,1
-0.0497099,0.019613266,0.40367138,0,1
-0.08423479,-0.06594086,0.36313143,0,1
-0.13670304,-0.079434395,0.24706887,0,1
-0.12934306,-0.042220116,0.23103783,0,1
-0.024512991,0.023601532,0.22781944,0,1
0.008946046,0.020874977,0.19795856,0,1
-0.004741378,0.013594627,0.17614812,0,1
-0.007794578,-0.07209492,0.12901717,0,1
-0.02080103,-0.1373434,0.09639225,0,1
-0.07101114,-0.10463619,0.09020375,0,1
-0.10227212,0.05237961,0.25370297,0,1
-0.10479377,0.071305275,0.3205775,0,1
-0.13572621,0.009043694,0.35443035,0,1
-0.15813196,-0.027503014,0.32733646,0,1
-0.14927663,0.03518963,0.3584937,0,1
-0.10634705,-0.053827286,0.38826445,0,1
-0.091346145,-0.11251736,0.37117007,0,1
-0.03522958,-0.059887886,0.30122793,0,1
0.006698418,-0.027353287,0.18975486,0,1
0.026773239,-0.021022797,-0.018861933,0,1
-0.035856776,-0.044960022,0.08874038,0,1
-0.060420435,-0.04276657,0.17319195,0,1
-0.0748276,-0.015791893,0.24224886,0,1
-0.07752459,-0.006504059,0.2369693,0,1
-0.10410249,-0.014433861,0.21875823,0,1
-0.11605999,0.003882408,0.2176238,0,1
-0.118467875,-0.012986183,0.23007937,0,1
-0.106137544,-0.02190876,0.20673905,0,1
-0.08392301,-0.02063942,0.18013124,0,1
0.013508119,0.058104515,0.17587438,0,1
0.037164666,0.038345337,0.19008017,0,1
-0.021580836,-0.053622246,0.1641705,0,1
-0.109947376,-0.05385208,0.11895397,0,1
-0.121489026,-0.023165703,0.14236891,0,1
-0.13889444,0.005656242,0.26170206,0,1
-0.17436418,0.010290146,0.35199526,0,1
-0.16833201,-0.009338379,0.35170868,0,1
-0.14573604,-0.044724464,0.34934512,0,1
-0.15765685,-0.06544781,0.34207785,0,1
-0.14247727,-0.06324196,0.28383318,0,1
-0.0999366,-0.020180702,0.19035724,0,1
-0.092710435,-0.021385193,0.12378609,0,1
-0.03584137,0.004530907,-0.039217696,0,1
-0.03773281,0.006333351,-0.112522945,0,1
-0.06816416,-0.007502556,0.03280732,0,1
-0.08295711,-0.035075188,0.30729738,0,1
-0.10322521,-0.07256031,0.39364967,0,1
-0.09327413,-0.036808014,0.4537497,0,1
-0.07420085,0.015810966,0.4226498,0,1
-0.06735693,0.003724098,0.32515612,0,1
-0.018708985,-0.03579712,0.24330719,0,1
0.022360742,-0.017295837,0.17156224,0,1
0.053829134,0.021055222,0.049868755,0,1
0.05102768,0.025426865,0.022994265,0,1
-0.021703476,-0.023396492,0.06634528,0,1
-0.08539047,-0.07683754,0.18952483,0,1
-0.09963143,-0.07783985,0.25598338,0,1
-0.119494386,-0.042284966,0.3941991,0,1
-0.17500943,-0.034992218,0.4447761,0,1
-0.26004392,-0.04219818,0.42393228,0,1
-0.26238298,-0.024329185,0.33691403,0,1
-0.26863623,-0.048862457,0.29184848,0,1
-0.23628935,-0.049951553,0.1584007,0,1
-0.23117176,-0.021772385,0.11883481,0,1
-0.18878412,0.005945206,0.08014408,0,1
-0.11774849,-0.02108574,0.03852862,0,1
-0.07772702,-0.04225254,0.09491144,0,1
0.02433119,-0.006653786,0.19293351,0,1
0.07097128,0.008461952,0.14000537,0,1
0.06787283,-0.005618095,-0.1027826,0,1
0.07477315,0.056767464,-0.34749997,0,1
0.10474169,0.0931139,-0.42181835,0,1
0.10324652,-0.031274796,-0.46795288,0,1
0.088400066,-0.097105026,-0.45643103,0,1
0.11549154,0.03695488,-0.19308929,0,1
-0.007676527,0.090517044,0.12922633,0,1
-0.12978028,-0.02118969,0.1899536,0,1
-0.22889861,-0.029428482,0.31032112,0,1
-0.2251975,0.009319305,0.3860203,0,1
-0.20556287,0.042819023,0.5358762,0,1
-0.16784479,0.03384304,0.5943671,0,1
-0.15714583,-0.002666473,0.60669005,0,1
-0.17916334,-0.08392811,0.63166296,0,1
-0.19200005,-0.06675053,0.62993854,0,1
-0.20149486,-0.012877464,0.5174489,0,1
-0.21617626,-0.06215763,0.3970956,0,1
-0.2048521,-0.06271553,0.3853308,0,1
-0.16417122,0.003108978,0.36213192,0,1
-0.15822996,0.015721321,0.30425644,0,1
-0.13552862,-0.017863274,0.22309777,0,1
-0.114119686,0.018853188,0.13836741,0,1
-0.119106665,0.017747879,0.10005219,0,1
-0.12627815,-0.014730454,0.06486435,0,1
-0.10933307,-0.03302765,0.07933599,0,1
-0.08677979,-0.06598568,0.13197325,0,1
-0.19109279,0.08995819,0.24846078,0,1
-0.23464197,0.16023445,0.26709455,0,1
-0.057740815,-0.13634586,0.11439432,0,1
0.0785833,-0.19138145,0.12969267,0,1
0.40083024,-0.1973629,0.05362408,0,1
0.64070874,-0.24011993,0.07344051,0,1
0.77991027,-0.1207304,0.23677468,0,1
0.8611819,0.035761833,0.5289927,0,1
0.8429035,-0.02273655,0.7225909,0,1
0.7354843,-0.14642143,0.91745377,0,1
0.6384212,-0.001192093,0.7744719,0,1
0.61779124,0.098163605,0.70389247,0,1
0.3245206,-0.09402943,0.41394985,0,1
0.12921165,-0.21434498,0.17972198,0,1
-0.110500075,-0.21261406,-0.0710835,0,1
-0.4866328,-0.0977478,-0.11182499,0,1
-0.8272643,0.007851601,-0.01256077,0,1
-1.2400314,-0.10512161,0.7866613,0,1
-1.1095185,0.07836151,1.4545027,0,1
-0.6146705,1.1803541,2.1970727,0,1
-0.39056903,1.1813545,1.8883004,0,1
-0.37270734,0.70277786,1.7844371,0,1
-0.078861475,-0.4217806,1.7808756,0,1
0.20315164,-0.715291,1.8064994,0,1
0.45961553,-0.9253807,1.5814276,0,1
0.63473403,-1.1464548,0.8668513,0,1
1.07307,-1.2352219,0.78640294,0,1
1.5527065,-0.43051147,0.015749395,0,1
1.0790176,0.7802143,-1.0938586,0,1
-0.1384291,2.0221548,-2.5077732,0,1
0.07557726,0.2749052,-1.8141114,0,1
0.49706224,-0.23286533,-1.4462612,0,1
0.9569677,-0.002090454,-1.2979008,0,1
0.8230586,0.103637695,-1.4231598,0,1
0.4574557,-0.16807938,-1.4778416,0,1
0.5469506,-0.72333527,-1.743258,0,1
0.37250888,-0.75104713,-2.0295541,0,1
-0.25199205,-0.5825348,-2.4388537,0,1
-0.30550063,-0.6169491,-2.4605658,0,1
0.03465426,-0.47862244,-2.2874207,0,1
-0.009157598,-0.81587696,-2.197965,0,1
-0.006736338,-0.9407377,-2.1706872,0,1
0.8126029,-0.87022305,-1.751473,0,1
0.62633514,-0.7241936,-1.0230474,0,1
-3.1524098,1.135107,1.1049895,0,1
-4.0141315,4.176093,1.7755461,0,1
-2.8734982,4.3288584,2.1231294,0,1
-1.9986842,1.5301609,2.7836447,0,1
-1.7782881,0.3097334,2.5311449,0,1
-2.004478,-1.124713,1.6291289,0,1
-2.6788044,-1.7421465,1.1107836,0,1
-2.382722,-1.6269112,1.0301253,0,1
-1.4739261,-1.2363768,1.1603261,0,1
-1.3056941,-1.1054592,1.2679931,0,1
-1.2994517,-0.82020664,1.3967406,0,1
-0.75087893,-0.8187132,1.7947071,0,1
-0.5786743,-0.8964491,1.9737864,0,1
