Acc_x [m/s^2],Acc_y [m/s^2],Acc_z [m/s^2],AnyFall,NegOutcome
0.014282391,-0.17233181,-0.482754,0,1
0.016368747,-0.17469978,-0.41700536,0,1
0.088920064,0.15752217,-0.21399157,0,1
0.10626652,0.28295323,-0.15941133,0,1
-0.005551513,0.20677088,-0.04260187,0,1
-0.0335534,0.11672782,-0.010239155,0,1
0.02219965,0.09675407,-0.015817393,0,1
0.014081895,0.06470965,-0.09503561,0,1
0.002093568,-0.012532239,-0.12505606,0,1
-0.08528392,-0.10431671,-0.12507308,0,1
-0.108443916,-0.11899376,-0.12206584,0,1
-0.07128354,-0.1827755,-0.16933991,0,1
-0.09324448,0.046887383,-0.19883013,0,1
-0.110419996,0.11447618,-0.21621093,0,1
-0.049595345,0.083406426,-0.22706997,0,1
-0.012751132,0.094585404,-0.18717556,0,1
-0.007012732,0.16179463,-0.16600284,0,1
-0.020763189,0.11722181,-0.27936918,0,1
-0.06988018,0.10147855,-0.36882642,0,1
-0.109134555,0.02261254,-0.59463465,0,1
-0.12669748,-0.10390189,-0.6815357,0,1
-0.14601274,-0.14741708,-0.6589664,0,1
-0.048045024,0.05438516,-0.44962448,0,1
-0.006578088,0.110456444,-0.34842205,0,1
-0.10334829,0.09250258,-0.16827585,0,1
-0.23362707,0.072578415,-0.052361708,0,1
-0.28019476,-0.11341572,0.034045562,0,1
-0.19005942,-0.2094755,0.037341774,0,1
-0.09420398,-0.28284356,-0.010119312,0,1
0.13490634,-0.52655596,-0.06898405,0,1
0.22146952,-0.5595817,-0.014760003,0,1
0.1603792,-0.10464475,0.19172649,0,1
-0.01305902,0.30578038,0.08827493,0,1
-0.2008683,0.45012662,-0.17735267,0,1
-0.80344164,0.6312789,-0.92847806,0,1
-0.9732575,0.705593,-1.3111798,0,1
-0.8867126,0.5871724,-1.457044,0,1
-0.37567028,-0.04674914,-0.4787294,0,1
-0.025880082,-0.3477697,-0.049546886,0,1
0.45680228,-0.49184698,0.17721817,0,1
0.42146358,-0.44392392,0.052789383,0,1
0.22896945,-0.49998376,-0.3159006,0,1
0.16116387,-0.18422031,-0.54162705,0,1
0.179618,0.022346467,-0.7028253,0,1
0.45746756,0.25081533,-0.77177197,0,1
0.5506701,0.26200196,-0.3910759,0,1
0.49660414,-0.029336894,0.44610327,0,1
0.6022828,-0.270647,0.29805297,0,1
0.5515866,-0.22081468,-0.026176441,0,1
0.17745411,0.13269897,-0.6802621,0,1
0.004925519,0.32915968,-0.9213379,0,1
-0.04107997,0.23390955,-1.0663466,0,1
0.13803187,-0.33141044,-1.057999,0,1
0.26771903,-0.2656412,-0.9623958,0,1
0.76295257,0.10889241,-0.8584769,0,1
0.91427696,0.18639657,-0.81559485,0,1
0.95833,0.003477099,-0.45188555,0,1
1.1721838,-0.014694191,-0.12711701,0,1
1.1922109,0.104191795,-0.13543308,0,1
0.7518844,0.13701914,-0.542584,0,1
0.347427,-0.00696375,-0.6408728,0,1
-0.21061414,-0.31942078,-0.20118213,0,1
-0.20668694,-0.13549423,-0.08555115,0,1
0.06127736,0.108530976,-0.281608,0,1
0.35935628,0.12741277,-0.6399996,0,1
0.2872014,-0.091274284,-0.7370834,0,1
0.11311321,-0.2434063,-0.53465855,0,1
-0.015650123,0.108133316,0.14429387,0,1
-0.05558969,0.17655754,0.19203992,0,1
-0.10585526,0.1570215,-0.1697529,0,1
-0.1313054,0.06646344,-0.47317174,0,1
-0.2570685,-0.12394814,-1.0075604,0,1
-0.13888898,-0.14053823,-0.6448404,0,1
0.07488254,-0.09415817,-0.21364103,0,1
0.3686492,0.14747334,0.26320896,0,1
0.33120742,0.24646091,0.14579235,0,1
0.06289402,0.20182797,-0.25710014,0,1
-0.2351638,-0.027039554,-0.4764417,0,1
-0.30818987,-0.086792015,-0.4533533,0,1
-0.16133969,-0.120459564,-0.2578228,0,1
-0.006908804,-0.011018761,-0.1904678,0,1
0.13483888,0.13165759,-0.20513254,0,1
0.07585309,-0.030372627,-0.24284396,0,1
0.10512346,-0.07650089,-0.21301305,0,1
0.20358236,-0.007716181,-0.16323844,0,1
0.24274531,0.02641296,-0.14832962,0,1
0.21188529,0.013559341,-0.11297932,0,1
0.23211983,-0.06292533,-0.1676983,0,1
0.24465728,-0.08242797,-0.19574586,0,1
0.21986505,-0.057085995,-0.27035272,0,1
0.19649231,-0.035967834,-0.34380287,0,1
0.124052584,0.028134327,-0.44701338,0,1
0.079530925,0.054934483,-0.40409875,0,1
0.10192338,0.029040318,-0.40480328,0,1
0.13601159,-0.026575102,-0.4136852,0,1
0.13716508,-0.022727026,-0.37903136,0,1
0.03752522,0.041496262,-0.25584576,0,1
0.13287553,0.012871734,-0.23333395,0,1
0.146804,0.014378538,-0.25409192,0,1
0.100893185,0.031250935,-0.3740973,0,1
0.12542647,0.01668547,-0.40250915,0,1
0.40285647,-0.08683394,-0.10593186,0,1
0.60112107,0.19134808,-0.01728035,0,1
0.53043807,0.20386408,-0.32549137,0,1
0.07930142,-0.047931712,-0.97529495,0,1
-0.111417025,-0.10595803,-1.0775969,0,1
-0.023632675,-0.107338935,-0.71788216,0,1
0.17930868,-0.048161514,-0.33733624,0,1
0.21280214,0.089833245,-0.20857528,0,1
0.14487262,0.10611914,-0.21866354,0,1
0.029523224,-0.06310083,-0.43885082,0,1
-0.09202191,-0.2198229,-0.6182444,0,1
0.13537166,-0.13197039,-0.22941825,0,1
0.2015232,-0.10982799,-0.063926585,0,1
0.19453588,-0.017885195,0.12111147,0,1
0.17274547,0.058163654,0.246962,0,1
0.16178818,0.07280256,0.42792526,0,1
0.097679146,-0.016509995,0.22147101,0,1
0.08450633,-0.059366215,0.082160085,0,1
0.03599962,-0.014060022,-0.07372575,0,1
0.011850093,-0.02674389,-0.09832787,0,1
0.04090313,-0.17126082,0.061469823,0,1
0.08352255,-0.10751627,0.21357104,0,1
0.06811012,-0.018258082,0.1932767,0,1
-0.004276041,0.072612755,0.055579808,0,1
-0.03714975,0.050916664,-0.027320182,0,1
-0.0727301,-0.045814518,-0.14440052,0,1
-0.016726054,-0.09078598,-0.1589189,0,1
-0.04617787,-0.08998203,-0.13200027,0,1
-0.21865845,-0.011002544,0.007839174,0,1
-0.23716272,0.04378604,0.043846082,0,1
-0.07822949,0.02248383,0.15484095,0,1
-0.05170153,-0.07465647,0.18262275,0,1
-0.1377061,-0.033818237,0.14394778,0,1
-0.23691589,-0.001584059,-0.009201482,0,1
-0.19430499,-0.014169698,-0.02617544,0,1
-0.03377319,0.090577126,0.14698468,0,1
0.050090935,0.10351181,0.106347986,0,1
0.000338972,0.17506693,0.0894403,0,1
0.16612715,0.04679965,-0.23284575,0,1
0.31989563,0.03034495,-0.4173283,0,1
0.22382918,0.07606885,-0.6101926,0,1
0.08741106,0.09789177,-0.6478201,0,1
0.019515201,0.21603294,-0.5025875,0,1
0.964203,0.20820138,-0.89061415,0,1
1.1085916,0.04305645,-1.3406256,0,1
0.50394124,-0.28726295,-1.8623949,0,1
0.15686846,-0.21648224,-2.0608544,0,1
0.10634667,0.00881091,-1.9206682,0,1
0.25888503,-0.007673329,-1.5556624,0,1
0.43317854,-0.27761844,-1.4980788,0,1
-0.017913043,-0.34096244,-1.5872217,0,1
-0.71710044,0.0165862,-1.8416216,0,1
-0.7739083,0.083974734,-1.766833,0,1
-0.3819,-0.37846953,-1.429348,0,1
-0.09036574,-0.69086075,-1.3672152,0,1
0.06953144,-0.815218,-1.3095219,0,1
-0.37761953,-1.1145992,-1.56329,0,1
-0.5904752,-1.2881174,-1.7587695,0,1
-0.42857507,-0.9100705,-1.7504185,0,1
-0.28957674,-0.54464436,-1.6985986,0,1
0.46826547,-0.26539996,-1.6365472,0,1
0.5826926,0.041282598,-1.4405961,0,1
-0.09580451,-0.15859991,-1.6184164,0,1
-2.0053759,-0.6115895,-1.9305401,0,1
-2.5227194,-0.59535986,-1.7393556,0,1
-2.5679445,-0.6238289,-0.21228132,0,1
-1.1465861,-0.56712234,1.5754104,0,1
-0.13974303,-1.5092294,2.39583,0,1
1.0722029,-3.6499982,4.399402,0,1
1.1789503,-3.6224713,3.980643,0,1
-0.3095798,-2.4868214,0.6833339,0,1
-1.1471307,-1.1581535,-0.9728561,0,1
-0.74739414,-0.4866095,-0.9324794,0,1
0.4979516,-0.15730856,-0.36347398,0,1
0.75703526,0.04065136,0.46981525,0,1
-0.042857155,1.8609074,0.5752874,0,1
-0.60566735,2.677676,0.41272196,0,1
-0.19046849,2.580796,0.9960809,0,1
-0.30287868,1.7822113,2.5745602,0,1
-1.1406536,1.3402748,3.025517,0,1
-1.6081449,3.5401523,2.9055345,0,1
0.07150918,5.8593755,2.210537,0,1
0.8758756,4.8488393,2.185215,0,1
1.6135931,-0.16797529,1.8274181,0,1
1.6206086,-1.4874179,1.3719474,0,1
1.5760175,-1.2531995,0.14931542,0,1
1.4853752,-0.001401876,-0.2457633,0,1
1.3439518,0.42321014,0.13222335,0,1
1.3885636,0.13232808,0.59799236,0,1
1.3449559,-0.03206437,0.7047429,0,1
1.3693345,-1.2258042,0.012111728,0,1
0.65184367,-0.14387797,-0.3573236,0,1
0.24488284,0.4850721,-0.20462885,0,1
-0.24115023,1.0882949,0.26698998,0,1
-0.2930599,0.8907365,0.47209793,0,1
0.25641656,0.42336753,0.90865165,0,1
0.6441417,0.677516,0.833358,0,1
0.26619762,0.60238266,0.53285205,0,1
-0.6128721,-0.44380188,-0.24224924,0,1
-0.81878287,-0.8568306,-0.5810749,0,1
-0.7983159,-0.79453754,-1.0446806,0,1
-0.583768,-0.28888133,-0.80738163,0,1
-0.5948153,0.109830804,-0.57708555,0,1
-1.085525,0.40220442,-0.48757914,0,1
-1.3732548,0.080190584,-0.6711985,0,1
-1.276098,-0.5102892,-0.7725388,0,1
-0.29019997,-0.026663799,-0.30704725,0,1
0.16765344,0.1832342,-0.07940692,0,1
0.6123127,0.12357809,0.16851786,0,1
0.60110086,-0.024412133,0.14016777,0,1
0.25858277,-0.20447825,-0.085169114,0,1
-0.16775574,-0.04718496,-0.33182314,0,1
-0.328848,0.006700487,-0.43462294,0,1
-0.35879812,-0.10706522,-0.46704924,0,1
-0.27054587,-0.15243246,-0.42610702,0,1
-0.14841372,-0.04538919,-0.330162,0,1
-0.06640902,0.019832592,-0.3416383,0,1
-0.037838988,-0.009344117,-0.3434104,0,1
-0.019537471,-0.05030824,-0.29374024,0,1
-0.03172353,-0.036392223,-0.26687163,0,1
-0.094130315,-0.007761968,-0.23798078,0,1
-0.20123377,0.03380869,-0.23689798,0,1
-0.2431502,0.041457154,-0.23648971,0,1
-0.2530148,-0.020911233,-0.2574234,0,1
-0.24079996,-0.060610786,-0.28030843,0,1
-0.23324963,-0.07111646,-0.32468522,0,1
-0.24841824,-0.041514415,-0.34993002,0,1
-0.23326424,-0.041358966,-0.3663627,0,1
-0.21592364,-0.058781642,-0.40270218,0,1
-0.22459777,-0.060770057,-0.40933344,0,1
-0.2021029,-0.05376913,-0.37828207,0,1
-0.14518201,0.000489218,-0.29279462,0,1
-0.17622699,0.058289506,-0.29494098,0,1
-0.44783783,0.14328285,-0.39636755,0,1
-0.6109853,-1.62E-05,-0.44500726,0,1
-0.930086,-0.38918975,-0.5739005,0,1
-0.79841477,-0.018913323,-0.7936059,0,1
-0.463,0.3362388,-0.69212234,0,1
0.16154768,0.35382172,-0.2763202,0,1
0.24692902,0.30194947,-0.1579779,0,1
0.18288198,0.15508936,-0.052491587,0,1
0.4281022,0.16367912,0.026124602,0,1
0.55142355,0.13478088,0.001583748,0,1
0.61151403,-0.15941712,-0.09400115,0,1
0.64212596,-0.28767583,-0.13623305,0,1
0.57226646,-0.1505289,-0.15727575,0,1
0.43821758,0.17714596,-0.038527213,0,1
0.35573494,0.27928445,0.039786413,0,1
0.029575758,0.095191956,0.10208459,0,1
-0.057493478,-0.12701987,0.17733641,0,1
0.4312547,-0.05540749,0.37953913,0,1
1.1085014,0.3435202,0.4699974,0,1
1.4486907,0.97899914,0.6622002,0,1
2.265987,3.5016763,1.113157,0,1
2.5895329,3.644323,1.0101485,0,1
1.8943417,2.8948953,0.59770197,0,1
0.2553746,2.967429,-0.4057518,0,1
-0.76979095,3.1653774,-0.88410586,0,1
-1.4532269,2.6083915,-1.0683305,0,1
-0.9639595,1.9692562,-0.87552017,0,1
-0.25231522,1.3825053,-0.68510026,0,1
0.09816348,1.1595591,-0.28955686,0,1
0.15455565,0.83115953,-0.1224903,0,1
-0.22381538,-0.39010236,-0.025239127,0,1
-0.7125457,-1.0654677,-0.11551986,0,1
-1.7484839,-2.1916711,-0.6199525,0,1
-1.7837929,-3.2667062,-1.0292214,0,1
-1.7420306,-3.4746807,-1.2401757,0,1
-2.0790317,-3.7395287,-1.9592628,0,1
-2.202877,-3.705327,-2.1480505,0,1
-1.5454025,-3.2480657,-1.044569,0,1
-0.34943327,-2.9011128,0.3787084,0,1
0.34330225,-2.3627536,0.9822132,0,1
0.70595556,-0.952319,1.4228554,0,1
0.27077165,-0.38608637,1.1890041,0,1
-0.8936228,0.06428432,0.5143022,0,1
-1.473983,0.17904563,0.15712671,0,1
-1.5140804,0.17473407,0.28791165,0,1
-1.0139731,1.28592,0.33545774,0,1
-0.6078006,1.8248795,0.32072303,0,1
-0.12753236,0.9539442,1.478386,0,1
-0.5321332,0.10254293,1.4996365,0,1
-0.95089656,-0.17454623,0.50143206,0,1
-0.31095925,-0.61757374,-1.0125109,0,1
0.101266205,-0.772316,-1.4152305,0,1
-0.19746023,-1.1364164,-2.28158,0,1
-0.43891078,-0.9222918,-2.5259712,0,1
-0.14154208,-0.64924914,-2.2875075,0,1
0.82899266,-0.11835962,-1.7017915,0,1
1.1603144,0.14113325,-1.4877099,0,1
1.1810604,0.4121446,-1.3612843,0,1
0.74639547,0.27530187,-1.1697509,0,1
0.5551282,0.029131852,-1.044477,0,1
0.2398134,-0.32074928,-0.7229204,0,1
0.1517283,-0.22396374,-0.5298314,0,1
0.16344315,0.16139315,-0.11844531,0,1
0.21165857,0.20216465,0.26086614,0,1
0.18722792,0.04834367,0.2386649,0,1
0.10711514,-0.3004894,-0.2901072,0,1
0.08463262,-0.20370771,-0.56514496,0,1
0.049553633,0.07667727,-0.96481043,0,1
-0.42842564,-0.056911517,-0.9410799,0,1
-0.68572366,-0.10494522,-0.5840186,0,1
-0.5311804,-0.14359665,0.0781324,0,1
-0.40171978,0.04114818,0.14147899,0,1
0.04699084,0.2616939,-0.38628423,0,1
0.7687315,0.017380688,-0.93331534,0,1
0.9591802,-0.13624956,-1.2023239,0,1
0.545898,-0.14717297,-1.5957499,0,1
0.20983839,0.038700987,-1.5980582,0,1
0.07366997,0.23467535,-1.0961453,0,1
0.7702521,0.3372583,-0.17635919,0,1
1.3338075,0.2385054,0.23117544,0,1
2.0137124,-0.2033166,0.42309123,0,1
1.7582756,-0.34175482,0.13175668,0,1
0.7557411,-0.13033581,-0.6301168,0,1
0.23578668,0.14198488,-1.0675889,0,1
0.14070642,0.07176489,-1.1934068,0,1
0.012714446,-0.07830149,-1.4239718,0,1
0.000544071,-0.05553156,-1.4016497,0,1
0.07292917,-0.15811448,-1.2425326,0,1
0.35496855,-0.14461616,-1.1692463,0,1
0.54723537,-0.06550601,-1.1464332,0,1
0.9360086,0.33932298,-1.1235113,0,1
1.096312,0.38890165,-1.3673003,0,1
1.4285464,-0.25792223,-2.3962119,0,1
0.85087216,-1.1265669,-2.093115,0,1
0.4545161,-1.0745,-1.4963975,0,1
1.1867669,0.18165387,-2.4469473,0,1
1.086144,0.90755546,-2.2872453,0,1
-1.7389934,2.1400154,1.0731213,0,1
-2.165151,2.2780333,3.8466954,0,1
-0.34233797,1.6144342,3.8092237,0,1
2.5376215,0.65416634,2.0708396,0,1
2.4186862,0.40099913,0.88390845,0,1
0.49370524,-0.7288398,-0.23547135,0,1
-1.694687,-1.9056095,0.5141822,0,1
-1.8423121,-1.9135445,0.99644387,0,1
-0.6076239,-0.7756147,0.58154696,0,1
0.11589071,-0.6156873,0.10266771,0,1
0.6948409,-0.5702371,-0.45945087,0,1
-0.013668016,-0.8654012,-0.255555,0,1
-0.25128967,-0.8137197,0.02339778,0,1
-0.06895941,-1.2717942,0.33571047,0,1
-0.000232801,-1.8053168,0.3413761,0,1
0.29263666,-1.6524915,0.38017282,0,1
1.0381974,-0.091355234,1.1690676,0,1
0.96346253,0.15674219,1.8675047,0,1
0.29489774,-0.007254474,2.5641582,0,1
0.2258864,0.525034,2.3953052,0,1
-0.14684102,1.6486386,1.1139709,0,1
-4.708275,-1.6671418,2.0204735,0,1
-6.3104324,-5.188683,4.421419,0,1
-3.7152524,-5.6288066,7.1890783,0,1
-1.9142964,-3.721551,6.7595997,0,1
-1.3009843,-2.4931343,3.1958106,0,1
-4.187127,-1.6126251,-1.6277384,0,1
-2.99967,-2.27205,-1.4304923,0,1
1.0262241,-2.5293572,1.7711369,0,1
1.0864856,-1.9482653,2.3339856,0,1
-0.1915017,-2.1732585,1.0689274,0,1
-0.51148355,-2.0942366,1.3148702,0,1
-0.44667846,-1.3140886,2.1989684,0,1
0.15884435,-0.6087969,2.9373984,0,1
0.10948777,-1.1732414,2.1933644,0,1
-0.3547572,-3.3522623,0.1610297,0,1
-0.84401894,-5.1516385,-1.4435543,0,1
-1.3086513,-4.93557,-2.0582123,0,1
-2.45959,-0.7129718,-2.826979,0,1
-2.5311322,2.666431,-2.7664542,0,1
-1.4627979,9.752527,-0.96928793,0,1
-0.26662606,12.934435,0.57141036,0,1
-0.01994741,13.577723,0.6530685,0,1
-0.1811435,13.834011,0.5323316,0,1
-0.17792812,12.370148,0.9554607,0,1
-1.0359774,5.807694,1.0043083,0,1
-1.4466482,1.0922784,1.5620064,0,1
-0.7656758,-0.6287573,2.7303462,0,1
0.09517628,-6.948587,2.1781125,0,1
0.015585274,-9.608167,1.1201975,0,1
-0.41560352,-10.818128,0.19098502,0,1
0.15091619,-10.473549,-0.32097054,0,1
0.17467788,-10.352011,-1.1256344,0,1
-0.047227383,-6.836279,-2.7141862,0,1
-0.039945006,-2.6738615,-2.8964903,0,1
-0.05099523,3.7195,-2.923535,0,1
-2.0811176,8.387388,-3.042593,0,1
-2.6941464,11.939066,-3.2327409,0,1
-2.8568435,16.118353,-3.3666034,0,1
-2.4905863,15.03714,-2.5404437,0,1
0.56321,7.366112,0.5208783,0,1
0.66878116,0.65765375,-0.5665536,0,1
-0.03198725,-1.0802555,-1.9095033,0,1
-0.5962671,-4.8578463,-3.272796,0,1
-0.8564755,-7.149694,-2.6487541,0,1
0.55779237,-11.417883,0.29477572,0,1
3.7339964,-13.536418,0.30274355,0,1
2.9981894,-13.285996,-1.0355866,0,1
1.7619796,-9.326171,-2.5680017,0,1
1.6728754,-5.6475406,-1.9585962,0,1
3.9900403,7.416226,0.05061087,0,1
0.54641175,12.726948,-1.39311,0,1
-0.65248024,12.713652,-0.082490064,0,1
0.28183705,9.884401,0.8006368,0,1
0.3325401,6.957028,0.27017707,0,1
0.37686527,0.731594,-0.11517914,0,1
-0.049568415,-5.0170436,0.3385986,0,1
-0.10961129,-7.0781217,0.6342535,0,1
0.5869784,-8.43053,0.78486145,0,1
0.53148115,-7.9172144,0.6540525,0,1
-0.14551085,-6.3643975,0.29366356,0,1
-0.15705878,-3.1623614,0.26576486,0,1
-0.017737046,-0.7502927,0.31434506,0,1
0.12158014,4.5084167,0.5435672,0,1
-0.08555323,6.630959,0.7671462,0,1
-0.31200078,8.166904,0.89055914,0,1
-0.23064446,5.447905,0.6512998,0,1
-0.12907697,3.318588,0.53792816,0,1
0.04458803,-1.1410798,0.25529596,0,1
0.08188999,-3.0144484,0.10048637,0,1
-0.045091234,-5.257751,-0.17365788,0,1
-0.3281163,-5.4430876,-0.30475402,0,1
-0.23573402,-4.9252334,-0.19296385,0,1
0.14276144,-2.862972,0.28089333,0,1
0.29711923,-1.3653907,0.5273915,0,1
0.68330556,2.1313064,1.1072713,0,1
0.44279823,4.7200923,0.9171506,0,1
0.22659962,5.1165814,0.6480968,0,1
0.1456969,3.838971,0.4429423,0,1
0.191523,2.4491718,0.39395368,0,1
0.19634357,-0.7015647,0.20263414,0,1
0.073590286,-3.212507,0.13434255,0,1
0.09705497,-3.8955972,0.15484788,0,1
0.11931285,-3.8889558,0.17902413,0,1
0.069205746,-3.3136103,0.19050275,0,1
-0.15134567,-1.4048117,0.24700925,0,1
-0.17521238,0.9623155,0.3853321,0,1
-0.027490065,2.0206916,0.52455866,0,1
0.09489183,3.258765,0.57768095,0,1
0.038057953,3.238365,0.48407426,0,1
0.11967858,1.8895129,0.39376765,0,1
0.10801634,-0.17942902,0.33636606,0,1
0.09829891,-1.1163338,0.30830935,0,1
0.07635941,-2.3612373,0.2657205,0,1
0.032138757,-2.5809963,0.23153196,0,1
-0.01930166,-2.2110932,0.16766505,0,1
0.059924856,-0.97309965,0.2689818,0,1
0.11304915,-0.18571183,0.32251018,0,1
0.0958201,1.2252206,0.2911772,0,1
0.10672507,1.6708955,0.31051555,0,1
0.2324113,1.7844609,0.42331493,0,1
0.21531689,0.818037,0.48472425,0,1
0.2032689,0.17727758,0.54598236,0,1
0.10862273,-0.98299783,0.52288127,0,1
0.07161337,-1.4839638,0.52001286,0,1
-0.02806954,-2.0100915,0.2866866,0,1
0.07448066,-1.7858075,0.054266173,0,1
0.063581936,-1.5324601,0.07698503,0,1
0.07167971,-0.6605186,0.46026778,0,1
0.1653459,-0.29354185,0.47582936,0,1
-0.17747253,0.10473823,0.115547284,0,1
-0.24057004,0.1941776,-0.24660434,0,1
-0.047150016,0.2616977,-0.5698316,0,1
0.43901503,0.36055082,-1.101009,0,1
0.6639966,0.26565164,-0.81066686,0,1
0.68281436,0.14057446,-0.035343595,0,1
0.2525857,0.060071014,0.4387974,0,1
0.20517328,0.118174575,0.49721256,0,1
0.060923114,0.077232376,0.38305566,0,1
-0.10992942,0.3122129,0.3534355,0,1
-0.4113625,0.81808466,0.22101095,0,1
-0.80315405,0.9635715,0.09918923,0,1
-0.7872008,0.8001508,-0.05090345,0,1
-0.36745954,0.06864545,-0.24353547,0,1
-0.2940338,-0.10857678,-0.10312097,0,1
-0.16052897,-0.079402916,0.13206007,0,1
0.15416992,-0.54709905,0.552742,0,1
0.26670533,-0.76919067,0.7500283,0,1
0.29402256,-0.9716605,0.61241114,0,1
0.20679562,-0.92194647,0.3979807,0,1
0.06921105,-0.38878533,-0.03439224,0,1
0.15868288,0.13756844,-0.280896,0,1
0.19328462,0.42382333,-0.28619078,0,1
0.21657622,0.7409982,-0.16502805,0,1
0.24473378,0.6631784,0.11931757,0,1
0.26550406,0.6418009,0.7173456,0,1
0.18451278,0.8504553,0.8163433,0,1
0.001859456,0.7259693,0.78293073,0,1
-0.07612902,0.55756474,0.7978076,0,1
-0.08993958,0.54184145,0.4024906,0,1
-0.33715364,-0.25391483,-0.6442115,0,1
-0.43839622,-0.8821125,-1.2366478,0,1
-0.27857444,-1.0347462,-1.1696968,0,1
-0.06450717,-0.71131516,-0.62417156,0,1
0.088523775,-0.29747868,-0.37231568,0,1
0.294567,0.40676492,-0.6899536,0,1
-0.20458502,0.6248797,-1.5626377,0,1
-0.60858417,0.76044446,-1.6387973,0,1
-0.6860707,1.5365618,-0.62743735,0,1
-0.4834501,1.876252,-0.03952477,0,1
-0.83763796,1.1775731,0.102856636,0,1
-1.2136239,0.8506087,-0.08376576,0,1
-1.1089649,1.4028853,-0.37823838,0,1
-0.5434456,2.1843832,-0.5653561,0,1
-0.08906518,2.1064575,-0.61375886,0,1
0.725034,2.2405736,-1.0488786,0,1
0.646313,3.0658014,-1.6145583,0,1
0.41471595,3.2559097,-1.8316706,0,1
0.66310585,3.2958524,-0.96324307,0,1
0.85677975,3.6078355,-0.3681633,0,1
0.7508975,4.1276193,-0.7873201,0,1
0.948977,3.4427269,-1.3050245,0,1
0.90251195,2.5331733,-0.9018614,0,1
0.50106996,1.6843537,-0.27066147,0,1
0.3080005,1.5736617,0.12490539,0,1
-0.13990209,0.42110443,1.0222281,0,1
-1.2726495,-1.7764376,1.4870216,0,1
-1.9157664,-2.644715,1.5504364,0,1
-2.1074626,-3.0396302,1.673581,0,1
-1.3692936,-2.7331178,1.4728829,0,1
-0.21427137,-2.568968,0.98581165,0,1
0.18297009,-3.2919571,0.11908516,0,1
0.333537,-3.1727297,-0.5630918,0,1
0.5609838,-2.769221,-0.79059744,0,1
0.53206134,-2.5718696,-0.37302643,0,1
0.30976272,-2.317032,0.007845121,0,1
-0.00948827,-2.477228,-0.5287346,0,1
-0.005199492,-2.2596104,-0.8499949,0,1
-0.18489301,-2.1808078,-1.3445356,0,1
-0.5068091,-2.4698627,-1.6054034,0,1
-1.4059527,-2.7968497,-2.0254946,0,1
-1.9941148,-2.2898045,-2.218084,0,1
-2.2089958,-2.454029,-1.8520795,0,1
-1.8985461,-2.8988206,-0.87796944,0,1
-1.3707749,-2.9413474,0.07673661,0,1
0.45575714,-1.575811,3.9104142,0,1
3.676868,1.2357334,7.6809483,0,1
5.123502,2.9112427,7.5710416,0,1
3.364488,5.4684935,4.7675867,0,1
1.5164325,4.8701577,3.3142962,0,1
-1.7256255,0.40020463,0.6150362,0,1
-1.7535887,-2.7130563,0.66912013,0,1
-0.5064351,-2.194834,1.213383,0,1
0.84175974,-0.9835194,1.7183926,0,1
0.7390327,-0.6092604,1.6801039,0,1
0.57072735,0.27500156,1.2907397,0,1
-0.08624959,0.12596798,0.4125322,0,1
-0.61784095,-0.17474554,0.27417907,0,1
-0.93197423,-0.050357796,0.9321996,0,1
-0.6250321,0.16519168,1.2821877,0,1
0.0198282,0.34058386,1.7388773,0,1
0.007999837,0.17033488,1.6049608,0,1
-0.13647193,-0.0270366,1.4786634,0,1
-0.1724045,0.04151921,1.1278505,0,1
0.024465263,0.19215015,0.9792829,0,1
0.41228572,0.41600132,0.6401253,0,1
0.49733546,0.34110925,-0.08481176,0,1
0.28204605,0.20490357,-0.40574467,0,1
0.1716466,-0.05060195,0.018945755,0,1
0.6578165,0.18935682,0.3098932,0,1
1.4409834,0.9368038,0.31601143,0,1
1.3259845,0.29083827,0.37896368,0,1
1.1421005,-0.24956411,0.29345706,0,1
1.1556692,-0.5660399,0.05812812,0,1
1.4391651,-0.39833635,-0.078626074,0,1
1.9959329,-0.20046516,-0.5322668,0,1
1.1650974,0.13474843,-0.90972793,0,1
0.41870758,0.30382246,-0.9185822,0,1
-0.5017904,-0.10193731,-0.28176728,0,1
-0.810611,-0.55727,0.2055753,0,1
-1.2204843,-0.7965793,0.57264477,0,1
0.04844275,-0.25913143,-0.6452806,0,1
0.8185451,0.057168927,-1.0938075,0,1
1.7697133,0.6486711,-0.5193496,0,1
1.6132627,0.9467497,0.08395708,0,1
0.49021888,0.47212029,0.58380723,0,1
-0.27806473,-0.7866201,0.7327958,0,1
-0.35355535,-0.3340425,0.9873388,0,1
0.35049462,0.13212304,1.0098113,0,1
0.65010166,-0.07276242,0.9053239,0,1
0.67397594,0.00505643,0.7130454,0,1
0.35267103,0.25471115,0.5626328,0,1
0.27000588,0.18908979,0.5739611,0,1
0.34764764,-0.2856912,0.5745026,0,1
0.44483033,-0.43943876,0.564921,0,1
0.7878095,-0.26585382,0.53221357,0,1
1.130945,-0.35052386,0.5868902,0,1
1.222533,-0.55168235,0.52468836,0,1
1.2385771,-1.1544675,0.45690262,0,1
1.2349362,-1.6481141,0.58449185,0,1
0.471682,-2.0017846,0.9517571,0,1
-0.38335794,-0.9005374,1.8305315,0,1
-0.35062128,-0.7820796,2.0295062,0,1
-0.22545081,-1.0045803,1.9524009,0,1
-0.34530813,-1.0077627,1.9666378,0,1
-0.26161832,-1.3245237,2.0285382,0,1
0.7819937,-2.6753373,2.3020391,0,1
1.2161613,-2.7968662,1.922977,1,0
1.4872255,-3.0544593,0.93151456,1,0
1.4287502,-3.733836,0.5246615,1,0
1.7613947,-5.7686114,0.53702164,1,0
2.30594,-7.5909996,1.9776782,1,0
2.8074532,-6.4681926,2.5575466,1,0
4.1694508,-0.6390721,2.7368808,1,0
3.931884,1.1492529,1.7961425,1,0
1.9434544,2.2718093,-0.36106044,1,0
0.60782635,2.5169342,1.4911367,1,0
-0.82332873,2.2980459,1.3321394,1,0
-1.1620438,5.694258,-0.40101618,1,0
0.0998891,8.06744,-1.9259475,1,0
-2.1762073,11.425631,-5.2293673,1,0
-5.19668,11.461155,-1.0348496,1,0
-5.8000364,10.112801,-0.07302385,1,0
-6.362766,6.138866,0.219083,1,0
-6.240774,2.0316186,0.19833721,1,0
-4.536943,-3.1002162,0.33225706,1,0
-2.4460208,-3.3916774,-2.786616,1,0
-1.0387386,-3.4128704,-4.80371,1,0
2.625216,-5.2035594,-3.6937745,1,0
4.9948235,-4.2154307,-2.8175626,1,0
2.8958995,-2.1359563,-6.4263144,1,0
0.18484235,-3.722948,-6.5966268,1,0
0.5393801,-3.2043061,-5.41059,1,0
0.7391027,-1.5103979,-4.258482,1,0
-0.18318439,-0.8864338,-4.4561534,1,0
-2.416572,-0.4649088,-3.9848824,1,0
-2.7537153,0.13564181,-3.3950934,1,0
-2.1368835,0.7202441,-3.4859817,1,0
-0.9020562,1.8636271,-3.9897618,1,0
-1.0884852,2.2759213,-4.398875,1,0
-1.0894771,2.6280713,-3.9111576,1,0
0.16857499,2.2387397,-2.3794148,1,0
0.26734453,1.7592733,-1.6221832,1,0
-0.41212744,0.9408235,-0.11321085,1,0
-0.93647283,0.4650068,0.21248698,1,0
-1.6480851,-0.73374456,0.36780378,1,0
-0.18599546,-1.7338465,0.28661242,1,0
0.9798493,-1.9606255,0.43732688,1,0
2.3403478,-2.1500003,0.81543946,1,0
2.502943,-2.2532365,0.92856383,1,0
2.5395405,-1.9294245,0.76092863,1,0
2.619617,-1.230211,0.84777963,1,0
2.449594,-0.94248277,1.9408804,1,0
1.8337193,0.42858416,1.153627,1,0
1.4198004,1.1249771,0.7432862,1,0
0.39712846,2.2319047,0.5989173,1,0
-0.57086134,2.2068126,0.79571986,1,0
-0.9149694,1.9104584,0.8364463,0,1
-0.8687984,1.0845908,0.26971763,0,1
-0.6573024,0.55251306,0.00980425,0,1
-0.6196286,-0.42852494,0.12141771,0,1
-0.55528355,-0.92594904,-0.16403344,0,1
-0.6125546,-1.007656,-0.21385337,0,1
-0.7527075,-0.96043587,-0.31283578,0,1
-0.6852563,-0.8790779,-0.3295176,0,1
-0.6776192,-0.41530037,-0.37812403,0,1
-0.6998605,0.17714113,-0.52440906,0,1
-0.5464915,0.37454218,-0.49320802,0,1
-0.16085598,0.7901105,-0.39777514,0,1
-0.11369781,0.8039693,-0.41559717,0,1
-0.1397965,0.72365755,-0.40793735,0,1
-0.08388819,0.5523519,-0.25932696,0,1
-0.08535066,0.41194436,-0.20552902,0,1
0.16802782,-0.006539353,-0.26792005,0,1
0.2445737,-0.24934672,-0.23604216,0,1
0.2930273,-0.5795011,-0.05046626,0,1
0.24922483,-0.74008936,-0.15512085,0,1
0.03796591,-0.74223703,-0.17460631,0,1
-0.3058131,-0.47452065,-0.0381745,0,1
-0.2952822,-0.25296494,0.051046066,0,1
-0.37363547,-0.15939045,-0.05693326,0,1
-0.75683326,0.1672134,-0.19923835,0,1
-0.8605749,0.310234,-0.35029864,0,1
-0.67157054,0.4025468,-0.7223437,0,1
-0.4547819,0.18013662,-0.84213626,0,1
0.03471923,0.05404566,-0.35751367,0,1
-0.14284304,1.3264569,-0.008393535,0,1
-0.49500984,1.3779715,-0.1683284,0,1
-0.8267776,0.96530527,-0.10312893,0,1
-0.6947358,0.8969268,0.015194966,0,1
-0.44480652,0.5897245,-0.34239334,0,1
-0.25606278,0.5334662,-0.7556853,0,1
-0.4188945,0.6318482,-0.7883929,0,1
-0.67834175,0.9347733,-0.5287871,0,1
-0.6589298,1.0852889,-0.15402135,0,1
-0.7506779,0.9682321,0.9364583,0,1
-0.07232654,0.86283875,1.4180046,0,1
0.42104048,0.61908245,1.4618491,0,1
1.1607051,0.18653594,1.9939542,0,1
1.506479,-0.40371785,1.8802745,0,1
2.0609982,-1.3499849,0.6713643,0,1
2.1656442,-2.697128,-0.5101564,0,1
1.8473015,-2.6079862,-0.5484086,0,1
0.45055637,-1.3076714,-0.38622397,0,1
-0.45141315,-1.1732758,-0.45633548,0,1
-2.3168716,-0.83475494,-0.66546184,0,1
-1.8755883,1.7847995,0.83304286,0,1
-0.9482724,2.8344448,1.055793,0,1
1.8023324,3.0899494,-0.22285531,0,1
2.0158587,3.7206438,-0.35961476,0,1
0.019325256,3.5466259,-0.64897364,0,1
1.3391838,1.882532,-1.432514,0,1
1.4862431,0.9838656,-1.5000284,0,1
1.108381,-0.9432907,-1.247998,0,1
1.4090571,-1.2175349,-1.1041182,0,1
2.0558567,-2.0622933,-0.18230756,0,1
1.327287,-0.8606518,1.756684,0,1
1.0189849,0.097240575,2.43239,0,1
0.654101,1.0550232,1.955891,0,1
0.26815367,0.5049496,1.8354607,0,1
-0.51842195,-0.21275224,2.114859,0,1
-0.8585509,-0.44930926,1.9068807,0,1
-0.8875656,-0.59907234,1.9364121,0,1
-0.6461021,-0.48061168,2.0202794,0,1
-0.30806828,-0.29617774,1.9905663,0,1
0.38004154,-0.1507758,1.6127636,0,1
0.43044275,-0.3907422,1.2396947,0,1
0.27545008,-0.6014346,1.0896902,0,1
-0.20389289,-0.6718549,0.6909537,0,1
-0.32780632,-0.7847318,0.5698159,0,1
-0.1059206,-1.0077027,0.36471015,0,1
0.51899,-1.3294038,0.13915156,0,1
0.5206067,-1.4507312,0.002705307,0,1
0.035250366,-1.4315842,-0.10885118,0,1
-0.08096169,-1.3105572,-0.077175885,0,1
-0.1440575,-1.1664122,-0.072146446,0,1
-0.20101732,-0.9926538,-0.027173616,0,1
-0.11410332,-0.9125127,0.021996949,0,1
0.39391014,-0.4611091,0.13314508,0,1
0.64193255,0.007055307,0.19723046,0,1
0.82284755,0.35333157,0.2003629,0,1
0.14384829,-0.33585164,-0.09680782,0,1
-0.19785851,-0.6820411,-0.23098107,0,1
-0.4479149,-0.9643344,-0.1857652,0,1
-0.5345775,-0.76320547,-0.17391385,0,1
-1.0021453,-0.22280599,-0.27375108,0,1
-1.7689781,-0.11958797,-0.815955,0,1
-1.9059287,-0.031142328,-1.0633907,0,1
-1.3459891,0.1089858,-1.3153384,0,1
-1.0149188,0.20530786,-1.2793193,0,1
-0.6329597,0.20129006,-1.006033,0,1
-0.7612653,0.51828563,-0.88935894,0,1
-0.62545955,1.112398,-0.73301816,0,1
-0.02513634,1.655691,-0.089850076,0,1
0.30196744,0.86786366,0.49125415,0,1
0.81760615,-0.9419278,0.86100155,0,1
0.640853,-2.179497,0.1557837,0,1
0.7505527,-2.2091568,-0.2471803,0,1
0.48426145,-0.64298624,-0.5693681,0,1
0.24061815,0.46454617,-0.007996732,0,1
0.7450594,2.4776456,0.7834996,0,1
1.4059982,2.8776023,0.7401716,0,1
1.5640732,2.1351612,0.6368772,0,1
1.4742503,-0.4335088,-0.029550113,0,1
1.058815,-1.211336,-0.3319671,0,1
0.18284187,-1.2326945,-0.46852332,0,1
-0.6070186,-0.9323787,-0.14050801,0,1
-0.71853435,-0.8967456,-0.012000812,0,1
-0.3377794,-0.901905,0.15297052,0,1
-0.14966111,-0.91688246,0.2583008,0,1
-0.12810346,-0.7072286,-0.36006805,0,1
-0.28873813,-0.33371738,-1.2694769,0,1
-0.124836415,-0.34506896,-1.0395285,0,1
0.9713483,0.2636881,-0.074579015,0,1
1.7014654,0.6938648,-0.030985093,0,1
2.1638775,2.0188987,-1.1162431,0,1
2.2912097,1.3788623,-1.9947933,0,1
2.1649919,0.5897197,-1.2956932,0,1
-0.093117,0.5233202,1.502687,0,1
-1.0091747,0.194089,2.26937,0,1
-0.6813317,-1.0568483,2.6448836,0,1
0.33048618,-0.8167065,2.0462773,0,1
0.6041164,-0.33380306,1.5427521,0,1
0.7127484,-0.4094371,1.1284307,0,1
0.59413534,-0.55437744,1.277052,0,1
0.21076217,-0.2977742,1.5114555,0,1
-0.16369006,0.13649943,1.1028216,0,1
-0.33599997,0.32349968,0.87844265,0,1
-0.3797219,0.15172005,0.5345082,0,1
-0.3005615,0.008832946,0.47255242,0,1
-0.062801376,-0.18834205,0.5592302,0,1
0.3682201,-0.23986334,0.79595983,0,1
0.32926774,0.025292436,0.7252401,0,1
0.16180642,0.2664051,0.3695633,0,1
0.04199693,0.21865177,0.21911928,0,1
-0.14143908,-0.07461165,0.24791224,0,1
0.1277897,-0.4525384,0.95393723,0,1
0.16493154,-0.54872596,1.1594398,0,1
-0.20286691,-0.5908145,1.2420921,0,1
-0.44100085,-0.6180228,1.2766018,0,1
-0.4852199,-0.63669384,1.6918675,0,1
-0.36240613,-0.6467713,2.0538664,0,1
-0.2286036,-0.7566651,2.0260262,0,1
-0.066992104,-1.4579961,1.4497068,0,1
0.41721988,-1.946028,1.5255057,0,1
0.92482054,-0.9581193,1.309556,0,1
-0.016581297,2.1518416,-3.2077258,0,1
-1.7171392,3.571546,-3.5037336,0,1
-2.5769794,4.9168897,1.6719623,0,1
-2.4374552,4.975179,3.4460833,0,1
-5.6791925,6.7561307,2.8349674,0,1
-2.5484955,9.255625,-0.43132782,0,1
-0.88671935,8.977312,-0.842285,0,1
0.2645411,4.3827415,1.2365614,0,1
-0.97248614,1.7416487,2.5084538,0,1
-1.8910307,-4.1718583,1.2972354,0,1
0.019830976,-8.603547,-0.12671004,0,1
0.2663269,-8.816408,-0.22718291,0,1
-1.3300366,-9.568558,1.0871935,0,1
-1.8727812,-10.900917,0.7968588,0,1
-0.99938816,-11.4604435,-0.7208889,0,1
1.6260052,-3.5510406,-5.220807,0,1
0.65644526,3.5261052,-8.729968,0,1
8.414221,11.341602,-9.199116,0,1
5.469818,7.3520436,1.5898569,0,1
0.038749218,4.1922464,11.556347,0,1
5.9515953,10.807823,-0.19440207,0,1
5.1323867,9.007761,-1.3187081,0,1
1.7179787,3.0266113,4.5160336,0,1
1.2773192,-0.62560344,3.014348,0,1
0.82920617,-7.0764346,-1.0343137,0,1
1.6877325,-11.192436,-3.371315,0,1
3.5970554,-13.622643,-4.4749494,0,1
5.2647133,-11.8539715,-6.527021,0,1
4.6339912,-7.0242777,-8.417686,0,1
3.4407012,9.484476,-6.1608005,0,1
10.072995,10.500303,0.49549955,0,1
7.525508,7.6320047,1.6631743,0,1
5.751772,8.054573,-2.5093389,0,1
2.8134422,1.2404487,-3.2696204,0,1
-1.1180948,-8.7001295,-2.2421854,0,1
-1.6959183,-11.567618,-0.64583,0,1
-1.5198466,-12.533237,0.47308958,0,1
-0.817541,-11.08226,-0.40416428,0,1
-1.2347186,-6.861482,-1.9781058,0,1
-1.8454629,2.8273537,-7.153569,0,1
5.9500422,9.737421,-3.205645,0,1
6.9957814,6.3629637,1.9315327,0,1
7.8637123,5.060522,1.9658232,0,1
9.12481,9.096586,-0.9459336,0,1
7.040566,5.980803,-1.5466434,0,1
1.7333826,-0.06623935,-0.98725903,0,1
-0.75074637,-3.2739394,-1.9518754,0,1
-3.2441225,-9.65552,-1.619417,0,1
-4.540003,-11.57418,-2.8010848,0,1
-3.0696654,-15.081374,-2.900287,0,1
-6.4791956,-10.657281,-6.6332803,0,1
-11.76985,-1.0922495,-9.256465,0,1
-8.015335,25.66775,-10.699771,0,1
6.5473776,25.714766,-5.912763,0,1
10.9751005,12.647791,2.4038036,0,1
7.6677737,13.8776455,3.2426658,0,1
3.2549171,3.548379,2.9051263,0,1
-2.2236035,-3.5392797,0.6292353,0,1
-1.7841487,-4.1459184,-0.4848834,0,1
-0.68526816,-8.012984,-1.0724453,0,1
-2.2443955,-10.632157,-1.0508171,0,1
-2.967212,-11.8908,-2.2161305,0,1
-2.6275673,-11.701925,-3.3692164,0,1
-2.4772267,-8.923744,-3.8127205,0,1
-2.8526657,0.5447477,-10.632266,0,1
6.316468,11.349594,-1.0046378,0,1
9.9182,11.856628,3.8183017,0,1
4.4931674,7.7754292,1.4367931,0,1
3.563074,8.8897915,-0.61030257,0,1
2.6302607,3.9115417,-0.6286501,0,1
1.0352949,-1.3311194,-0.4027025,0,1
1.0529774,-3.9235933,0.029996123,0,1
0.17891541,-8.506065,0.09676428,0,1
-0.24497595,-9.401942,-0.60420626,0,1
-0.32068062,-12.593023,-3.1260772,0,1
-1.3204756,-11.354966,-8.938115,0,1
-2.358492,-4.6625295,-11.082175,0,1
-0.78825164,18.234045,-9.379687,0,1
1.3865778,16.864344,-6.2614512,0,1
6.1143465,7.2370896,-1.4309679,0,1
3.8304162,11.531666,-4.0481086,0,1
0.80350983,4.8732514,-2.2803552,0,1
-0.9163979,-4.2271404,-0.7206976,0,1
-1.6614063,-7.911696,-0.3449489,0,1
-2.9170635,-12.824153,0.15132613,0,1
-3.8712304,-13.08634,-1.0502102,0,1
-3.8428926,-9.477841,0.8952384,0,1
-2.645053,10.720773,12.874627,0,1
-2.303052,11.580851,5.516125,0,1
1.3301737,7.3541913,-3.249391,0,1
-0.2506289,3.9090145,0.02666947,0,1
-1.8933961,3.874481,-0.2291123,0,1
0.74637157,4.2421184,-1.7348363,0,1
3.0348582,2.947004,-1.8395475,0,1
6.224185,0.82659435,-2.3606873,0,1
1.048496,-4.165807,-2.0180616,0,1
-0.3914469,-6.5019937,-1.1719904,0,1
-1.8810933,-10.095786,-0.33621842,0,1
-2.8658786,-12.45836,-0.99310356,0,1
-5.7341375,-8.534599,1.5442065,0,1
-11.276286,41.00998,41.5426,0,1
-1.6680727,31.25742,22.917685,0,1
2.828584,5.2326365,-7.352693,0,1
2.5065105,6.2046566,-8.086208,0,1
-0.7564796,9.103586,-6.27816,0,1
-3.1340628,-1.3351107,-0.8919057,0,1
-3.0910587,-6.3248706,-0.1963934,0,1
-3.5435216,-11.58979,1.6088963,0,1
-3.4443195,-11.799567,3.572469,0,1
-1.8573811,-6.254361,7.202353,0,1
-2.5122838,2.7555063,2.4136992,0,1
-2.395094,3.3711934,-1.6230947,0,1
-1.4742873,6.402558,-4.206214,0,1
-1.5829115,5.6182866,-2.4026935,0,1
0.19705361,4.961922,-1.4844289,0,1
-0.7365098,6.08569,-3.7583773,0,1
-0.8918723,6.3741856,-5.408297,0,1
-1.511202,1.465779,-4.335342,0,1
-2.4286585,-1.8329692,-2.284691,0,1
-3.4711185,-7.671838,0.8022319,0,1
-5.0539556,-14.618333,3.4814322,0,1
-3.3653457,-16.341326,2.6341312,0,1
0.2985413,-8.1388855,7.6087127,0,1
3.1022892,-0.17597811,9.9217615,0,1
-12.414633,16.191076,8.170019,0,1
-7.5711617,2.2959888,3.7797616,0,1
-6.293963,3.4616125,1.0766237,0,1
-8.667052,4.573066,-0.3390832,0,1
-5.999405,-2.767905,2.3596103,0,1
-3.7875788,-2.195316,1.661275,0,1
-2.6999736,-5.778956,0.85204476,0,1
-1.6253562,-8.338754,0.694125,0,1
-1.8966614,-10.586405,0.37957862,0,1
-2.4275422,-11.1911,2.5491452,0,1
-0.33061934,-9.78853,11.020673,0,1
5.3967867,-1.9302474,12.581139,0,1
2.5251253,4.245307,13.636588,0,1
-11.19693,10.48609,13.611386,0,1
-8.19163,5.231934,7.2956414,0,1
-2.2962654,7.9097013,6.9261994,0,1
-5.07275,5.391871,6.4163537,0,1
-5.8908644,3.2554188,6.5975914,0,1
-4.3760552,2.6505518,7.8511744,0,1
-2.856376,1.8541747,7.503601,0,1
-1.1824821,-3.4128366,4.722475,0,1
-1.4328032,-7.4336987,3.2205367,0,1
-0.25693464,-7.4603333,4.48568,0,1
4.3594017,-8.817007,4.646644,0,1
6.487749,-10.448484,2.6064587,0,1
7.7413244,-6.194023,-2.3849494,0,1
0.80501586,-1.3290005,-2.7529116,0,1
0.67134845,4.342376,1.3167057,0,1
0.60733795,16.285799,8.449916,0,1
-0.2651391,15.243675,7.008874,0,1
-1.1047233,7.5341,4.1829915,0,1
-0.12587202,1.2253246,2.191031,0,1
-0.1494554,-3.323747,1.2333827,0,1
-1.4558047,-10.757544,-0.15955898,0,1
-2.2135665,-11.919389,-0.034562383,0,1
-1.7005258,-11.182759,0.345518,0,1
7.10147,-3.9785187,-1.6853555,0,1
9.166073,0.2991037,-4.915126,0,1
3.4255948,6.5132713,-9.487104,0,1
0.6047504,3.7758937,-6.76124,0,1
0.16957198,2.808091,-0.53660524,0,1
-0.6298646,6.882378,1.7897574,0,1
-1.4698018,5.459659,1.2450008,0,1
-1.7354796,2.1239583,1.1591043,0,1
-1.2219908,-1.3643683,0.9016131,0,1
-0.2401002,-7.9927354,-0.11294901,0,1
1.7698631,-9.346815,-1.9712803,0,1
3.944882,-10.461597,-3.0793273,0,1
6.438255,-11.088236,-2.6179638,0,1
9.957913,-2.99509,-9.121435,0,1
4.983877,22.03953,-12.489793,0,1
-8.5835285,7.055435,-6.121801,0,1
-8.951021,7.9463177,-5.943378,0,1
-6.6812243,6.6250825,2.199125,0,1
-3.3707535,-0.5415163,0.6982393,0,1
0.7503644,-7.934383,-0.37473038,0,1
0.95001817,-11.223043,-0.7579601,0,1
0.51745343,-11.724896,-1.2110816,0,1
4.105791,-9.125033,-0.864851,0,1
7.190314,-7.2182946,-1.6288464,0,1
5.5435767,-1.2649173,-2.0444758,0,1
-4.3513665,9.02331,5.116243,0,1
-9.820454,10.542568,6.146677,0,1
-4.9038343,4.612881,-1.3939866,0,1
-2.808082,4.363503,-1.9282012,0,1
-3.3779483,7.2836423,0.073215105,0,1
-5.7358966,4.6260085,0.021965738,0,1
-4.673555,0.46176133,-0.43596044,0,1
-0.16485688,-5.883119,-0.069807865,0,1
1.1948963,-7.569694,0.029543854,0,1
4.185804,-9.334682,1.5821925,0,1
5.294773,-11.397199,3.1355839,0,1
5.3820534,-6.6630244,-0.052395236,0,1
4.7132273,11.705935,-1.3258348,0,1
0.45804608,17.125624,4.3159285,0,1
-6.749501,9.931763,4.1018105,0,1
-3.3165274,6.891913,0.72445965,0,1
-0.4015628,-0.09174635,-0.48877656,0,1
0.70526564,-7.146827,0.65243006,0,1
0.8616214,-9.122765,0.1664227,0,1
1.3381537,-10.765926,-0.8319653,0,1
1.7603469,-11.80818,-0.05896042,0,1
3.6143591,-6.9559894,-1.8961955,0,1
8.168022,30.43515,-30.49772,0,1
3.422348,27.425753,-22.238268,0,1
-5.8483562,3.235127,-0.07230919,0,1
-2.2165396,6.1711793,1.1038008,0,1
0.66524214,7.625563,1.4059684,0,1
1.9166782,7.7372823,1.8828658,0,1
0.6335906,7.1856294,1.9449972,0,1
-3.0992444,0.8843688,0.5742877,0,1
-4.215522,-4.7265644,-0.50661576,0,1
-3.0170789,-6.553985,-0.17156924,0,1
0.55085516,-8.611648,0.67434424,0,1
1.8777093,-9.476775,1.7047489,0,1
3.594317,-13.3946295,3.541851,0,1
11.718946,-7.4764247,9.376488,0,1
14.589503,-1.5165569,8.983564,0,1
2.3964403,14.860544,4.117934,0,1
-4.16084,17.877893,3.8883438,0,1
-2.7551382,8.519001,0.9905126,0,1
-2.8710575,11.053665,0.9923644,0,1
-2.5793364,3.869192,0.09626601,0,1
-0.35333905,-4.8124733,-0.32197124,0,1
0.3446021,-7.722963,-0.71981937,0,1
0.13754648,-11.7223425,-1.8023238,0,1
0.895356,-12.113849,-0.95680636,0,1
1.6510024,-11.080808,0.27785245,0,1
8.150921,-1.4796091,1.5433611,0,1
12.502966,7.805394,0.642602,0,1
2.8648834,8.547127,0.8684731,0,1
-2.462266,2.7136028,-0.81839675,0,1
0.7900554,5.746308,-1.5672807,0,1
2.049077,11.408119,-0.445146,0,1
-1.2203915,8.341808,-0.1873513,0,1
-4.2323804,1.4323299,-1.2360575,0,1
-3.4740992,-2.2324457,-1.4010623,0,1
-1.6497188,-4.206899,-0.8969615,0,1
1.2811223,-7.614228,0.22389217,0,1
1.6764054,-8.471364,0.6893078,0,1
3.56217,-9.828331,2.228022,0,1
6.0231,-10.9245615,2.931489,0,1
5.761774,-7.280255,2.4478803,0,1
-2.0013366,10.383465,-0.09744174,0,1
-9.74424,15.327719,-2.7618437,0,1
-0.37396735,7.4940724,1.6716074,0,1
-3.2747486,5.8262334,0.95695734,0,1
-3.7439294,0.32024273,-0.7993655,0,1
-2.300298,-2.354313,-1.8423885,0,1
-0.64621264,-4.651768,-0.7560327,0,1
1.7164192,-8.276676,0.9279858,0,1
2.2345014,-9.432704,1.8281987,0,1
1.6007788,-9.657116,1.1915125,0,1
3.7181568,-3.1528578,3.6101315,0,1
4.790726,1.9748871,5.999981,0,1
-6.091276,4.787745,-1.7690904,0,1
-7.8042192,6.6254196,-4.9468775,0,1
-4.217707,5.4988103,-1.6687794,0,1
-2.345211,3.3717039,-0.6073119,0,1
-1.3910371,2.2550533,0.36833364,0,1
-0.40789962,0.58280754,1.5246195,0,1
-0.5672172,-3.9096582,0.3872573,0,1
-0.1489662,-7.6442323,-1.1710846,0,1
-0.8991815,-13.207656,-4.1633177,0,1
-2.2336245,-13.303474,-3.4215612,0,1
-2.4895244,-5.5382195,3.1640882,0,1
-2.7002897,9.892206,3.523463,0,1
-2.687645,11.724218,2.6708305,0,1
-1.5965408,7.33252,2.2519288,0,1
-1.6660786,9.776455,1.9194818,0,1
-1.9205825,5.199384,0.36634746,0,1
-1.0605572,-3.044254,0.32660118,0,1
-0.35772574,-5.5579877,-0.21089812,0,1
1.0673196,-8.56045,-1.7546036,0,1
1.2905545,-10.7811985,-1.9886097,0,1
1.1729587,-11.740697,1.1833143,0,1
8.209402,-0.70734316,14.303394,0,1
18.491026,12.360055,18.921915,0,1
5.941386,12.8395405,4.487034,0,1
0.5467932,7.646193,0.29780146,0,1
7.715747,7.8968725,2.9956694,0,1
2.5807662,2.329299,2.5031774,0,1
-0.70182085,-0.3424968,1.1783394,0,1
-0.3658795,-3.174669,0.006098213,0,1
0.6424231,-2.9966156,0.6788644,0,1
1.5119175,-2.8542542,2.729086,0,1
1.2165177,-4.057231,2.9698193,0,1
1.3446476,-4.633365,2.1936839,0,1
3.177474,-2.1300514,-0.042662628,0,1
2.051518,1.8896474,-0.5620631,0,1
-2.1129956,8.076111,-1.399966,0,1
0.7915856,3.899351,-0.04186022,0,1
1.4526902,1.2055978,0.0902068,0,1
1.867995,-4.197622,0.13875733,0,1
2.0785527,-4.5158668,0.60640705,0,1
0.98878294,-1.8604228,1.9483676,0,1
-1.0434467,-0.3527259,1.7281748,0,1
-1.502205,-0.15111254,0.861523,0,1
-0.96116173,-0.3922682,-0.72664297,0,1
-0.33783287,-0.78381824,-0.89552456,0,1
0.39843667,-0.7227468,-0.52391845,0,1
0.58707714,-0.08411695,-0.7283139,0,1
0.85795057,0.022740334,-1.0595464,0,1
1.4761934,-0.49600697,-1.4357288,0,1
1.7042041,-1.1896142,-1.234736,0,1
1.9282417,-1.1607951,-0.52645326,0,1
-0.11585772,3.1640575,0.51182187,0,1
-1.2280098,3.728708,0.692402,0,1
-0.6851512,0.06850238,-0.44913238,0,1
-0.26443124,-1.2613448,-0.39650187,0,1
-1.0110767,-1.6375369,-0.02880833,0,1
-1.326206,-0.42488104,-1.1578974,0,1
-0.8426411,0.2318467,-1.4166449,0,1
-0.18744233,0.7544259,-1.1397637,0,1
0.023430854,0.45591155,-1.179081,0,1
-0.66653574,0.34351626,-0.7465258,0,1
-1.9067378,0.2052507,0.21077715,0,1
-1.7138977,0.10467812,0.18339056,0,1
-0.1594502,0.07783886,-0.5606964,0,1
0.6088362,0.14731212,-0.9367342,0,1
1.3975095,0.17857262,-0.982549,0,1
1.3146749,0.14082146,-0.37112412,0,1
1.3433594,0.16066171,-0.057733007,0,1
1.5518413,0.30251315,0.27421042,0,1
1.6732452,0.19201472,0.24192189,0,1
2.0627966,-0.32264033,0.37467346,0,1
2.2861218,-0.73602754,0.8793666,0,1
2.0906916,-0.80121785,0.90203464,0,1
0.25019714,1.1690472,1.1242781,0,1
-0.47513402,2.3990352,0.657972,0,1
-1.816953,1.5442493,-1.1931567,0,1
-3.0136871,-1.3932524,-0.5608677,0,1
-2.8211846,-2.3648899,0.13684952,0,1
-0.8678938,-0.59532636,0.9475806,0,1
0.33995932,0.7580633,0.95357364,0,1
1.3558981,2.3213403,0.35003644,0,1
0.49541554,1.0978345,0.40675876,0,1
0.096185505,0.01533607,0.6897554,0,1
-0.46951434,-1.3182973,0.9302085,0,1
-0.7923112,-1.590227,0.9817479,0,1
-0.41129577,-1.9357289,0.6479818,0,1
0.91717696,-1.2296256,0.4296964,0,1
1.3572297,-0.9691075,0.30566686,0,1
1.4630542,-0.882902,0.16222577,0,1
0.91314685,-0.59594625,0.14507872,0,1
-0.47916564,1.8548421,0.5352375,0,1
-1.7884674,4.691561,0.34921646,0,1
-1.7718859,3.6595743,0.50237733,0,1
0.23672977,-0.8947047,1.4522738,0,1
0.57596916,-1.6425807,1.1069845,0,1
-0.5758635,-0.49966717,-0.30989844,0,1
-1.8168199,-0.6730633,-0.75551593,0,1
-2.2853997,-1.1172123,-0.53834355,0,1
-2.7403479,-1.7195387,0.039096802,0,1
-2.5216496,-1.523774,0.06297489,0,1
-1.8961725,-0.22313218,-0.26224357,0,1
-1.1892093,0.44169322,-0.4916079,0,1
-0.70638645,0.4350833,-0.69212294,0,1
-0.2475383,0.3403367,-0.8992476,0,1
-0.34036407,0.26047128,-0.72021055,0,1
-0.36320648,0.093237855,-0.11996294,0,1
0.47344565,-0.4021854,0.032123543,0,1
0.99397224,-0.90197843,-0.032833915,0,1
1.5174891,-1.5637244,-0.06698046,0,1
1.2666935,-1.1751307,0.1962145,0,1
0.18816045,1.5100459,0.0809303,0,1
-2.2704701,2.6431482,-0.49740604,0,1
-3.7651277,1.871578,0.36357048,0,1
-3.8074718,-1.4551934,1.5706476,0,1
-2.5462193,-1.9152335,1.3197535,0,1
0.16417082,0.051918063,0.7156761,0,1
0.3494158,2.2284362,0.93526965,0,1
-0.19624665,1.9446295,0.84259796,0,1
-0.63694614,-0.38251013,0.7399802,0,1
-0.53126466,-1.2744807,0.8397859,0,1
-0.29997173,-1.4286698,1.0431381,0,1
0.20812726,-1.1425437,1.0992005,0,1
0.62070215,-1.0941665,0.99988455,0,1
1.0851579,-1.2174737,0.9899431,0,1
1.1151804,-1.1765125,1.1546679,0,1
0.6918423,-0.7830733,1.2437043,0,1
-0.1547797,0.3704071,1.0214453,0,1
-0.35257,1.1672133,1.0911161,0,1
-0.60937023,3.1866806,1.2443148,0,1
-0.2697129,3.5980794,1.1855628,0,1
2.3709688,2.4018278,1.6458546,0,1
2.1826239,0.18102655,1.1348708,0,1
0.28530517,-0.31291574,0.31671205,0,1
-2.227121,0.4134797,-0.9644445,0,1
-1.9327447,0.16995895,-1.3335941,0,1
-0.6688904,-1.9109964,-1.2904859,0,1
-0.83178556,-2.74904,-0.47330436,0,1
-1.1190758,-2.2320535,-0.31855753,0,1
-0.5662679,-0.77937794,-0.60253996,0,1
-0.070897475,-0.44015217,-0.6779915,0,1
0.5177338,-0.732789,-0.56146437,0,1
0.43868428,-0.63001627,-0.6370911,0,1
0.1688464,-0.20233156,-0.7822514,0,1
-0.16334537,0.41798487,-0.97836983,0,1
0.008459359,0.50083244,-0.9808525,0,1
0.87727636,0.2895908,-0.36091784,0,1
1.7947274,-0.07362456,0.073166974,0,1
2.5450022,-0.42106715,-0.15984236,0,1
2.9437747,-0.4761428,-0.17455289,0,1
2.1211894,0.42066005,-0.111189745,0,1
-0.00738731,3.0924652,-1.1959893,0,1
-2.947452,2.6320844,-1.6598302,0,1
-3.6439972,1.006644,-0.95047396,0,1
-2.5836322,-1.4977998,0.42468426,0,1
-1.3219477,-1.0749701,0.6538776,0,1
0.9038743,0.8399353,0.23795994,0,1
0.61478084,0.81472296,-0.43568107,0,1
0.014429733,-0.16934586,-0.22992633,0,1
-0.74621713,-1.9211878,0.9885411,0,1
-0.75981647,-2.112096,1.2755672,0,1
-0.5641351,-1.5055465,1.2279022,0,1
0.34459552,-0.5502709,1.0784128,0,1
1.104266,-0.038243227,0.8212739,0,1
1.8331563,0.031153733,0.2551769,0,1
1.509916,-0.21405597,-0.019145895,0,1
-0.24482717,0.39265627,-0.20390637,0,1
0.6815059,1.2426823,-0.40693176,0,1
1.5885046,1.5372018,-0.15040804,0,1
-1.3721945,3.1964872,-0.47712922,0,1
-3.325674,4.2086453,-0.43231937,0,1
-3.9880826,2.2114189,-0.19232345,0,1
-1.9914892,-3.2634928,-0.69263333,0,1
-1.3998691,-3.6280787,-0.8119045,0,1
-2.220727,-1.987844,-0.5369152,0,1
-2.8715727,-1.4642401,-0.055299923,0,1
-2.837954,-0.3074303,0.12870874,0,1
-1.3820124,-0.06578928,-0.80649126,0,1
-0.35433388,-0.4236422,-1.0475041,0,1
1.4304879,-0.59876627,-1.1705811,0,1
1.5368747,-0.5169553,-1.1346111,0,1
0.52217615,-0.39405918,-1.0271552,0,1
0.14043605,-0.097314864,-0.91623425,0,1
0.3330901,0.15211292,-0.87696695,0,1
1.2911023,0.21639344,-0.93316126,0,1
1.9548023,-0.19699286,-1.1662822,0,1
2.065053,-0.9795827,-1.5673306,0,1
-0.41096038,1.5088995,-1.2310699,0,1
-1.5301976,2.6995018,-1.1608926,0,1
-2.7096453,1.0618112,-0.6366118,0,1
-2.972579,-0.69113445,0.67258835,0,1
-1.8108537,-1.792488,1.1405612,0,1
0.5854559,1.2125262,-0.11568892,0,1
0.57022154,2.2264545,-0.44400558,0,1
-0.85631657,1.9638623,-0.07623212,0,1
-1.1597805,1.0555943,0.41421205,0,1
-0.7103821,-0.54504675,0.9943415,0,1
-0.24605286,-1.5737685,0.8011361,0,1
-0.11706492,-1.6550816,0.5766913,0,1
0.11526007,-1.2737187,-0.07947017,0,1
0.03186983,-1.2952594,-0.5174269,0,1
-0.16059294,-1.3825663,-1.0016799,0,1
-0.4040686,-0.66072464,-0.8313298,0,1
-0.719657,-0.3144503,-0.6042247,0,1
-0.8275853,0.3921489,-0.011571487,0,1
-0.2597484,1.1640843,-0.47900325,0,1
0.95966727,2.4123056,-1.9157721,0,1
-1.2313817,3.293576,-0.42611414,0,1
-2.1214523,2.7319133,1.1061417,0,1
-0.90805113,0.15317926,2.7162397,0,1
-0.62833506,-1.2003629,2.5000608,0,1
-1.3537052,-2.2370808,1.328268,0,1
-1.45673,-1.3286046,0.77218014,0,1
-1.3550005,-0.69748586,0.7053575,0,1
-0.93176,-0.14787863,0.3553354,0,1
-0.80605084,-0.3197813,-0.02379216,0,1
-0.79756594,-0.8065243,-0.48400626,0,1
-0.85940844,-0.7780504,-0.62624997,0,1
-0.84737486,-0.6594858,-0.60842997,0,1
-0.7774285,-0.48190308,-0.31586275,0,1
-0.789419,-0.34116745,-0.18374215,0,1
-0.7554639,0.18955703,-0.3757252,0,1
-0.40678257,0.21390623,-0.64090294,0,1
-0.20073642,0.04803558,-0.7281136,0,1
-0.10908842,-0.522768,-1.4406918,0,1
-0.18166953,-0.6336499,-1.9266995,0,1
-0.15015572,0.1489171,-1.7599939,0,1
-0.08635861,2.0367687,-0.9679373,0,1
-0.33545148,2.4045208,-1.4294558,0,1
-1.2490181,1.2959527,-0.37972748,0,1
-1.3470309,0.6973486,1.3760624,0,1
-0.4276694,-0.29537562,3.898818,0,1
0.41590595,-0.50722957,3.0621858,0,1
0.51856816,-0.430786,1.8723089,0,1
0.22657616,0.58738035,0.004042565,0,1
-0.013189015,0.88709635,-0.023972407,0,1
0.19594827,0.06867318,1.0659498,0,1
0.5765567,-1.0786102,1.6095564,0,1
0.50839984,-1.2078884,1.4215739,0,1
0.5095839,-1.0334548,0.9241015,0,1
0.672878,-0.87887275,0.6107831,0,1
0.8546609,-0.30724427,-0.5242093,0,1
0.048400104,0.10981838,-1.5680532,0,1
-0.27584687,0.15952386,-1.7018331,0,1
-0.028352082,0.08015055,-0.9453323,0,1
0.30349347,0.23768328,-0.287803,0,1
0.6453642,-0.08911796,0.4654423,0,1
0.10804329,-0.47582433,0.1637072,0,1
-0.6547111,0.21611789,1.1855993,0,1
-0.8311306,3.2406158,4.1789293,0,1
-0.58315396,4.184464,4.187608,0,1
-0.78139573,0.3402148,2.3720522,0,1
-1.0110935,-2.3259056,1.0685297,0,1
-1.1051087,-2.1098707,1.1039261,0,1
-0.8910661,-0.85484207,2.0227702,0,1
-0.51834416,-0.4686278,2.37252,0,1
0.08009297,-0.4572333,2.184609,0,1
0.10121718,-0.3383645,1.0539479,0,1
0.10918871,-0.13009162,0.4573248,0,1
0.5386049,0.044183753,0.25159436,0,1
0.8552457,-0.35359946,0.8544297,0,1
0.9844043,-2.2907681,2.1815398,0,1
-0.6871754,-0.5716695,0.018908083,0,1
-0.93920165,1.4787738,-0.9783033,0,1
-0.24027053,2.9107845,-1.2648805,0,1
-0.4023199,2.0137966,-1.4611453,0,1
-0.8832523,0.0857991,-1.969367,0,1
-0.6029865,-1.7871656,-1.2475508,0,1
-0.18518734,-2.2650082,-0.6691164,0,1
0.37422752,-0.9845618,0.8611032,0,1
0.92208266,0.45023924,1.645335,0,1
2.3086576,1.5196705,2.4355423,0,1
2.686268,-0.42495236,1.409483,0,1
2.0244784,-1.2549474,0.65748954,0,1
0.071624026,-1.058916,0.20696197,0,1
-0.2940588,-0.049926765,-0.08206904,0,1
1.1083943,0.019072492,-1.4120972,1,0
2.02314,-1.0947474,-1.7016135,1,0
1.0231024,-1.3685197,-1.4196533,1,0
-1.4135034,-1.6150732,-1.0789528,1,0
-1.278146,-2.0114858,-0.9976257,1,0
0.6010966,-3.4092982,-1.3382136,1,0
1.3040185,-3.8537114,-1.8797064,1,0
1.036109,-3.8084743,-1.8065029,1,0
0.019747496,-4.1261535,-1.3579788,1,0
-0.60270685,-4.1108537,-1.2734051,1,0
-1.1635982,-2.9473236,-1.888565,1,0
-1.3874733,-0.07535091,-2.6210866,1,0
-2.1844108,1.4800726,-2.8346992,1,0
-2.8540783,2.3177323,-3.211447,1,0
-2.321668,1.2856413,-2.8979328,1,0
-1.0013721,-1.3268557,-1.980569,1,0
1.053521,-3.7445614,-1.3201308,1,0
1.7686372,-3.9474347,-0.6546232,1,0
2.040998,-4.4582143,0.19753861,1,0
2.3046873,-5.4291253,-0.44109684,1,0
3.3568506,-7.182844,-4.3229,1,0
2.148694,-10.281187,-1.4648485,1,0
1.6635736,-13.3454,2.2645898,1,0
2.9429157,-6.31987,14.39687,1,0
-2.6140347,11.551166,26.378017,1,0
-9.953467,41.722458,18.914055,1,0
-5.336899,39.53737,3.446319,1,0
-2.9785445,28.956697,-6.5035696,1,0
1.7523412,9.515049,-5.4333973,1,0
3.307675,3.9828699,-2.6296067,1,0
2.0075676,-3.2682257,-4.493521,1,0
-1.9953554,-7.67435,-3.083268,1,0
-2.9046376,-9.776025,-1.0370145,1,0
-5.1562586,-10.66627,7.525844,1,0
-4.2268715,-8.203164,8.51727,1,0
-2.380303,-6.5718393,4.2679877,1,0
-0.08104324,-7.6347694,3.3478718,1,0
0.64607406,-7.2556863,3.451923,1,0
0.29636526,-4.470845,3.4173534,1,0
-0.3442372,-2.1488175,3.0645568,1,0
-0.77215695,3.3997028,2.850778,1,0
-1.5686307,7.7817655,2.088148,1,0
-1.5428222,9.441071,3.1812205,1,0
-0.1906836,9.201866,5.321009,1,0
-0.5300915,8.096018,5.7717643,1,0
-1.2989142,5.321793,5.3619237,1,0
0.40206778,0.67218226,5.4888964,1,0
0.0851171,-0.39255974,5.0525155,1,0
-1.246707,-1.6549948,0.83646053,1,0
-0.79274356,-2.7934263,-0.76781076,1,0
0.078793705,-4.7198977,-1.6455232,1,0
-0.34972548,-4.4418902,-1.799312,1,0
-0.76353383,-4.2252874,-1.7258226,1,0
-0.97752565,-3.960284,0.5630189,1,0
-0.6871028,-3.1510327,1.3698283,1,0
-1.2233605,-0.5075368,0.9445485,1,0
-1.5495415,2.514283,-1.2007653,0,1
-0.93745506,3.433976,-1.7355317,0,1
0.8094704,3.88815,-1.2954895,0,1
1.1817818,3.6398876,-1.0778155,0,1
0.8487135,2.5148323,-0.84529406,0,1
0.057577826,1.0811461,-0.15968414,0,1
-0.27865517,0.315196,0.34810463,0,1
-0.51717854,-0.85761917,1.0897652,0,1
-0.6393163,-1.3620003,1.143565,0,1
-0.90506464,-2.3078096,0.8080984,0,1
-0.6747115,-2.4861982,0.24982125,0,1
-0.5513662,-2.2005737,0.008116881,0,1
-0.93508244,-1.2152852,0.4119044,0,1
-1.1081066,-0.5328683,0.8138871,0,1
-0.96037495,0.73156834,1.3980781,0,1
-0.6834265,1.3781365,1.3517631,0,1
-0.52233046,1.5722932,1.1483563,0,1
-0.25968704,1.8677481,0.8766943,0,1
-0.18551597,1.7008418,0.801411,0,1
-0.18249346,0.9982261,0.58337206,0,1
-0.24706444,0.45755005,0.60676455,0,1
-0.28240064,0.07682897,0.63787085,0,1
-0.097720355,-0.56836694,0.57935596,0,1
-0.001931846,-0.697709,0.62496454,0,1
-0.19129564,-0.7308511,0.5167425,0,1
-0.38300052,-0.691554,0.4951716,0,1
-0.34785938,-0.66658777,0.5559703,0,1
-0.18686782,-0.46994108,0.4618226,0,1
-0.025591403,-0.19902131,0.35581782,0,1
-0.29592472,-0.3559656,-0.25141498,0,1
-0.07540588,-0.7341756,-0.41399512,0,1
0.58061326,0.38849637,-0.099738576,0,1
0.4165088,2.1196697,0.95307106,0,1
-0.25678366,1.7144117,1.4980236,0,1
-0.97199774,1.6949358,2.3223007,0,1
-0.51313275,0.15709119,1.4207139,0,1
-0.6569206,-0.036215734,1.3064381,0,1
-1.1351633,-0.43048757,1.2975402,0,1
-1.0624048,-0.49075502,1.0282546,0,1
-0.7924113,-0.47485825,0.68677497,0,1
-0.22875261,0.28093344,2.2165165,0,1
0.057934284,0.85521996,3.4807081,0,1
-0.8394226,0.8171465,5.124697,0,1
-1.2860929,-0.15358524,4.5993047,0,1
-0.7355853,-0.96533096,2.002286,0,1
0.36240262,0.6266517,-0.79758805,0,1
0.27724504,1.273215,-1.6304077,0,1
-0.0790251,1.4265755,-0.25058794,0,1
0.44184554,1.229164,1.0335624,0,1
1.1220789,0.1969119,1.8020864,0,1
2.148553,-1.081866,1.7857897,0,1
2.2872334,-1.282049,1.7524637,0,1
1.8811588,-1.0801246,1.8004583,0,1
1.5182028,-0.74968797,1.9395086,0,1
0.8564587,-0.47074115,1.2953285,0,1
0.65142375,-0.63285536,0.19578248,0,1
0.21671334,-0.5437793,-0.2579908,0,1
-0.24292365,0.0416717,-0.954877,0,1
-0.30221283,0.4927205,-0.9641396,0,1
-0.25641108,0.4872035,-1.2196548,0,1
-0.18843204,-0.05068594,-1.1892438,0,1
-0.5484381,0.020673692,-0.94934905,0,1
-1.2918639,0.5507449,-0.4248928,0,1
-1.6024344,0.862522,0.05803664,0,1
-1.5033951,1.7912005,0.3536946,0,1
-1.4786695,2.4702184,0.5354501,0,1
-1.6301103,2.6757286,0.49613154,0,1
-1.8139107,3.1969306,0.55089813,0,1
-1.8559164,3.224118,0.71427464,0,1
-1.8868762,3.5227973,1.039642,0,1
-2.1629333,2.9662359,1.6839322,0,1
-2.3809407,2.2745636,2.2577102,0,1
-2.2598834,1.0876846,3.0645242,0,1
-1.9356735,0.5874701,3.021067,0,1
-1.2623019,-0.7208145,3.0917208,0,1
-0.38808656,-1.4288576,2.954328,0,1
0.017212272,-1.2566125,2.7861848,0,1
0.9129274,-0.46816048,2.249911,0,1
1.2128031,-0.08158861,2.0804822,0,1
1.3225724,0.57179546,0.45171502,0,1
0.8639107,-1.2323351,-3.0830426,0,1
0.50129235,-2.6849356,-3.2944403,0,1
-0.6054636,-3.2157228,-0.17244592,0,1
-0.8999908,-3.2677615,1.9726616,0,1
-0.49159312,-2.5643532,2.7947986,0,1
0.028961897,0.12638196,2.0953476,0,1
0.17524785,0.24037085,2.491495,0,1
1.1947842,-1.0316302,3.6238968,0,1
2.1962805,-1.4917418,4.0761027,0,1
4.321701,-3.726509,3.3602536,0,1
2.411844,-4.4952984,0.025779124,0,1
-1.0028323,-1.3102399,-4.9328933,0,1
-6.303362,2.6251242,-7.515214,0,1
-5.9245768,5.325148,-1.0841365,0,1
1.941462,6.216595,3.3656406,0,1
5.4901752,2.1211553,-6.601349,0,1
2.9578297,0.1953618,-7.7372017,0,1
-0.7859957,-2.2315502,-4.6478496,0,1
-1.6770382,-3.1524754,-2.4263449,0,1
-2.1398487,-3.7828157,2.1308713,0,1
-1.5711436,-1.596978,3.4817662,0,1
-1.195605,-0.93521297,2.379263,0,1
-0.1656535,-1.1772898,-1.118803,0,1
-0.27817142,-0.66323954,-2.8486161,0,1
0.21776271,-1.0618868,-3.0831413,0,1
0.13605276,-0.977602,-0.7357188,0,1
0.08737572,-0.89799017,0.37635332,0,1
-0.24813125,-1.2138165,0.7945802,0,1
-0.50169885,-1.0550374,0.38720345,0,1
-0.63397884,-0.3939972,-0.041432567,0,1
-0.82172704,0.22698876,0.10417394,0,1
-0.8995958,0.27816102,0.2564646,0,1
-1.185296,-0.21948624,0.3450215,0,1
-1.1546166,-0.648323,0.07375378,0,1
-0.58552563,-0.47983268,-0.92437184,0,1
-0.041145563,0.93041694,-1.3293345,0,1
0.06206307,2.1860263,-1.0171276,0,1
0.7462585,4.2099404,-1.702135,0,1
0.48037457,2.757345,-1.8497562,0,1
-1.0257677,-0.6532278,-0.43459585,0,1
-0.17035854,-1.078122,-0.60802937,0,1
0.94684255,-1.1085528,-0.77301496,0,1
1.8962231,-0.25293633,-0.9409385,0,1
1.8005378,0.031755425,-1.3864758,0,1
1.1538126,0.12188241,-1.045171,0,1
0.7719642,0.6300144,0.37672037,0,1
1.1326963,0.55088234,0.46933404,0,1
1.8711381,0.011932395,-0.49956328,0,1
1.9094583,-0.2168932,-1.209442,0,1
2.2092311,-1.1606873,-0.8936065,0,1
0.748754,-1.7835616,0.71458423,0,1
-0.81430686,-1.0760535,1.3249795,0,1
-2.4536123,1.6652173,1.8071295,0,1
-2.056239,2.261954,1.7837058,0,1
-1.5313468,1.2902802,1.0987444,0,1
-1.8713256,-0.36341953,0.24795373,0,1
-2.221873,-0.9504223,0.006159295,0,1
-2.3348513,-0.95591646,-0.7148787,0,1
-1.9019128,-0.74119765,-0.9892346,0,1
-1.2187202,-0.6627903,-1.1651075,0,1
-1.3446826,-0.61307436,-1.4150649,0,1
-1.6846282,-0.14421855,-1.7216029,0,1
-2.1031446,0.41298372,-2.227014,0,1
-2.0573592,-0.011947786,-2.274508,0,1
-1.6377771,0.6169384,-1.9734607,0,1
-0.74060524,3.248227,0.24522887,0,1
-0.4293573,3.3730514,0.5318295,0,1
-0.4025104,1.2495688,-0.6863673,0,1
-0.4025733,-0.4736166,-0.50719374,0,1
-0.3611946,-1.312622,1.4708663,0,1
0.16082776,-0.1797646,2.8481667,0,1
0.7310591,-0.40963823,2.8033633,0,1
1.791517,-1.3379934,2.0341985,0,1
1.6164148,-1.4072282,1.5872495,0,1
-0.006358892,-0.7288178,1.1937368,0,1
-0.76002425,-0.11497781,0.9527085,0,1
-0.8992706,-0.20164964,0.6381032,0,1
-1.3462689,-0.73973364,0.13170077,0,1
-1.4658238,-0.8815536,0.16500454,0,1
-1.3667221,-0.33519265,0.5529475,0,1
-1.2602178,0.026934624,0.69858485,0,1
-1.140969,-0.014364239,0.65603364,0,1
-0.5929001,0.09742259,0.3573066,0,1
-0.56206405,0.18014048,0.19881822,0,1
-1.2576191,0.17485616,0.42626697,0,1
-0.99860513,0.4695348,0.08653555,0,1
-0.8410376,1.1136264,0.024680557,0,1
-0.87751627,4.2463,1.57585,0,1
-0.109317064,4.9529185,2.5076094,0,1
3.2111387,1.6966314,2.1496747,0,1
3.1796544,-2.184522,0.3073144,0,1
2.390171,-2.342386,-0.1534192,0,1
0.5532874,-1.388131,0.20181343,0,1
0.16726689,-0.9798221,0.40820432,0,1
0.18583617,0.5617533,0.8108785,0,1
-0.09959233,-0.16429609,0.9260784,0,1
-0.15415168,-0.80413043,0.80553734,0,1
-0.1827347,-0.8104419,0.2779031,0,1
-0.046703376,-0.4735832,0.27270058,0,1
0.19433972,-0.68491447,0.5938043,0,1
0.1348378,-1.4991139,0.44522405,0,1
0.010832474,-1.3498038,0.38467467,0,1
-0.1394494,-0.93277925,0.08073366,0,1
-0.0846106,-1.2942809,0.21954282,0,1
-0.47541034,-1.3581971,0.04892121,0,1
-1.0552902,-0.92555803,0.13026215,0,1
-0.7221543,-1.4542531,0.6464966,0,1
0.7029216,-1.4792365,0.45463562,0,1
1.5240706,-0.74174494,-0.48036414,0,1
3.244774,1.3179387,-2.329379,0,1
4.4130945,2.7005823,-2.3671653,0,1
3.760978,2.6442935,-1.4769751,0,1
2.417114,2.0397432,1.2080547,0,1
1.7486863,1.8140402,1.7048491,0,1
0.8912872,-1.8418896,2.1675544,0,1
1.6190239,-1.5385253,1.2078482,0,1
1.7712216,-0.06678861,0.38129497,0,1
1.0824115,0.925765,-0.1629513,0,1
0.6284302,0.56577486,0.246913,0,1
0.25691947,-0.15660755,1.2969021,0,1
0.50732046,0.16744907,1.5189885,0,1
0.55966485,0.49741748,1.2941127,0,1
0.40005937,0.6940755,-0.044913538,0,1
0.26523817,0.54695696,-0.6076416,0,1
0.16267051,0.17226979,-0.42706794,0,1
0.008593176,-0.05629062,0.11604208,0,1
0.24348629,-0.23628995,0.1635301,0,1
0.808777,-0.025172185,0.5921155,0,1
0.8683313,0.17095189,0.6897973,0,1
0.791311,0.038941417,0.35368523,0,1
0.7847561,-0.18859099,-0.2860573,0,1
0.8062454,-0.28841588,-0.5065518,0,1
0.8934302,-0.37995625,-0.91394585,0,1
0.789755,-0.22663307,-0.80903447,0,1
0.5386935,0.007100106,-0.2663065,0,1
0.4114661,0.09638501,0.0668192,0,1
0.42370033,0.08148766,0.09192263,0,1
0.34940827,0.003849048,0.21044907,0,1
0.17157587,-0.08672521,0.28081393,0,1
-0.12284723,-0.2221317,0.45702896,0,1
-0.26650777,-0.41524404,0.8594388,0,1
-0.36676088,-0.36001486,1.0141762,0,1
-0.5007496,0.072497405,1.2507625,0,1
-0.65903497,0.2232075,1.2361948,0,1
-0.84122443,0.13461111,0.49252072,0,1
-0.8259647,0.00435826,-0.23851123,0,1
-0.7852744,0.06876845,-0.5231783,0,1
-0.56320596,0.07157034,-0.89654976,0,1
-0.40775195,0.046839673,-0.63293844,0,1
-0.25696778,0.10504721,-0.004169291,0,1
-0.06536575,0.35760206,-0.3590696,0,1
0.16376454,0.3976516,-0.82129633,0,1
0.33313948,-0.014423399,-0.82791793,0,1
0.38168967,-0.25354958,-0.57667506,0,1
0.60451394,-0.4281806,0.79032767,0,1
0.8747302,-0.033560667,1.2779405,0,1
1.0911531,-0.011106459,0.09468222,0,1
-0.27702868,-0.39935127,-3.4259067,0,1
-0.9399357,-0.50455207,-4.5322785,0,1
-0.38594347,0.16698535,-3.0476289,0,1
0.7155751,1.4684952,0.21232376,0,1
0.8535352,1.476471,0.8698622,0,1
0.16856542,-0.20849322,0.06518439,0,1
-0.13245529,-0.65077776,-0.36419618,0,1
-0.0878637,-0.20225908,-0.5823428,0,1
0.3326345,0.4287052,-0.1108995,0,1
0.3396421,0.3760433,0.048809063,0,1
0.18948548,0.051106453,0.005162937,0,1
0.1482284,-0.022173876,0.007653371,0,1
0.2330905,-0.014229755,0.27204022,0,1
-0.006400168,0.12649727,0.41784072,0,1
-0.030143455,0.10349751,0.34716588,0,1
0.23988654,0.07733631,0.051657308,0,1
0.3180335,0.11881542,-0.083119325,0,1
0.42009798,0.011298191,0.034986183,0,1
0.98753166,-0.12827675,0.88228226,0,1
1.1417955,-0.13241662,1.222241,0,1
0.8671427,-0.1611575,1.3758821,0,1
0.6858051,-0.18409148,1.363197,0,1
0.7669405,-0.32464015,1.4086087,0,1
1.2293446,-0.20348728,1.5078177,0,1
1.4447458,-0.056175128,1.3824539,0,1
1.7897031,-0.010100286,0.7317892,0,1
1.9930074,-0.120522425,0.47937334,0,1
1.7485793,-0.06382077,0.4367733,0,1
2.0895278,1.1203299,0.9259292,0,1
2.682086,1.4886894,1.5535145,0,1
1.6607664,1.6367388,1.1367785,0,1
1.2143049,1.6089419,0.26067173,0,1
1.694722,0.84996885,-1.1749403,0,1
1.6530693,-0.8211145,-1.4942107,0,1
0.64390427,-1.4735804,-1.8347412,0,1
-2.5837607,-1.2302427,-2.3947968,0,1
-3.449881,-0.9060441,-2.0760417,0,1
-2.18791,-1.4211655,-0.5645945,0,1
-0.022499293,-0.8699969,0.66729814,0,1
0.33383167,0.10041813,0.738271,0,1
-0.795871,1.0742577,0.046260927,0,1
-1.5036869,1.1029853,-0.030548928,0,1
-2.1041238,0.5114125,-0.08235815,0,1
-1.4554079,-0.22378354,-0.48415372,0,1
-1.2019993,-0.14894395,-0.50103223,0,1
-1.4115562,0.41525164,-0.6833353,0,1
-1.531991,0.5623816,-0.6936439,0,1
-1.3814543,-0.120784804,-0.33262408,0,1
-1.0462458,-0.87781525,-0.13915183,0,1
-0.8099954,-0.96282667,-0.065621324,0,1
-0.02227167,-1.038349,0.1605643,0,1
0.47196242,-1.20444,0.3147261,0,1
1.4208741,-0.8008164,0.8544937,0,1
0.92358863,0.10259155,0.55396223,0,1
0.31722125,0.7592487,0.28018084,0,1
-0.6642438,2.920966,-0.14983444,0,1
-0.8105484,3.245486,-0.4160337,0,1
-0.1440494,0.47326565,0.6406185,0,1
0.47536764,-2.088186,0.20634192,0,1
-0.51983494,-1.341564,-0.47360426,0,1
-1.8915312,-0.262456,-1.1977432,0,1
-1.7969391,-0.39390382,-1.4864895,0,1
-2.1388135,-1.0258341,-1.8576472,0,1
-1.4187921,-0.6527968,-1.3739821,0,1
-0.5114286,-0.21409516,-0.9687663,0,1
0.62718165,0.51663584,-0.4226692,0,1
0.48377043,0.3938932,-0.4158583,0,1
-0.17280592,-0.22832777,-0.58311903,0,1
-0.13160099,-0.23225786,-0.71674246,0,1
-0.008013844,-0.1598673,-0.67025167,0,1
0.2907814,-0.11326599,-0.37333387,0,1
0.5304299,-0.1443138,-0.24403225,0,1
1.2465246,-0.23679826,-0.21472411,0,1
1.8453648,-0.1586866,-0.26501226,0,1
1.7421435,-0.094069436,-0.11790966,0,1
0.5694584,0.38297844,0.1488838,0,1
0.551247,1.0576705,-0.06074732,0,1
-0.09752457,1.5311221,-0.7415138,0,1
-1.4833901,0.8878468,-1.0991273,0,1
-1.5598568,0.38994777,-0.8699696,0,1
-1.2418479,-0.32750037,-0.50897944,0,1
-1.4728088,-0.3867264,-0.63714314,0,1
-2.2664247,-0.16757211,-1.0799012,0,1
-2.8001716,-0.20008764,-0.93920404,0,1
-2.6056104,-0.25026613,-0.68652797,0,1
-1.4253235,-0.1607237,0.03930617,0,1
-0.68631846,-0.09068584,0.29106557,0,1
-0.068651535,0.45713517,0.29963577,0,1
-0.4751256,0.5156707,0.001189071,0,1
-0.6883417,0.21893212,-0.031451356,0,1
-0.9135349,-0.48905656,0.3500156,0,1
-0.9149422,-0.7733049,0.5073025,0,1
-0.40986964,-1.528387,0.46788597,0,1
-0.018037006,-1.1158723,0.44635606,0,1
-0.11451223,-0.5557241,0.33683753,0,1
-0.6168056,0.19226928,-0.23911898,0,1
-0.7649678,0.38617888,-0.6381759,0,1
-0.83875954,0.9779948,-0.8977773,0,1
-0.12554453,1.1571082,-0.75420713,0,1
0.013006866,0.7394323,-0.62335503,0,1
-0.40965718,-0.65315056,-0.51588213,0,1
-0.36830598,-1.0990876,-0.61006993,0,1
0.10503933,-0.58155155,-0.9080965,0,1
-0.11812937,0.96814716,-1.1272997,0,1
-0.30750883,1.0923918,-1.0886055,0,1
-0.27291802,0.12607759,-0.7678285,0,1
-0.106441155,-0.18527986,-0.6763003,0,1
0.41663754,0.2530784,-0.6462739,0,1
0.8389679,0.17834756,-0.90988094,0,1
0.7860949,-0.09010222,-1.0275431,0,1
0.065494,0.083557054,-1.5517175,0,1
-0.25164813,0.029331114,-1.8626953,0,1
-0.6690996,-0.22464858,-2.1358137,0,1
-1.4008942,-0.17191708,-2.3004553,0,1
-1.914508,-0.1265842,-2.5886662,0,1
-1.8508645,0.11673719,-2.75984,0,1
-0.92692363,0.40783963,-2.317555,0,1
0.4133937,1.151781,-0.507591,0,1
0.55941725,1.0655459,0.48629802,0,1
1.089318,0.60998344,1.1378173,0,1
1.5837398,-1.195257,2.63238,0,1
1.2001011,-1.4760988,3.0623226,0,1
-0.011543274,-0.5646742,2.6998978,0,1
-0.5962422,0.08479025,0.9411861,0,1
-0.686126,0.037762623,0.06781122,0,1
-0.90155,-0.32208163,-1.3394481,0,1
-0.85557204,0.018067257,-1.7091559,0,1
0.49852926,0.9474257,-1.3372005,0,1
0.92644626,-1.9031719,0.1757461,0,1
1.1303525,-2.169534,0.5158832,0,1
1.2749364,-0.8374681,-0.5633922,0,1
1.2029859,0.10597036,-1.0021482,0,1
0.81726444,1.2665433,-1.410434,0,1
0.10727298,-0.58144855,-1.5273072,0,1
0.004383445,-1.6596087,-1.2678636,0,1
0.13563783,-1.9291018,-0.66212636,0,1
0.38399202,-1.9624728,-0.54264283,0,1
0.37414616,-2.6382544,-0.5660596,0,1
-0.17715839,-2.3219135,-0.2982566,0,1
-0.16970122,-1.9951671,-0.29378226,0,1
-0.20897669,-1.3796452,-1.1360048,0,1
-0.2758145,-0.7953615,-1.4232748,0,1
-0.5274137,-0.14396958,-1.0417141,0,1
-0.566891,-0.8350916,-1.1124697,0,1
-0.55900395,-1.1554346,-1.801464,0,1
-1.0041492,-1.1266948,-3.8990707,1,0
-1.1359601,-0.8277065,-4.2505274,1,0
-1.2507374,-2.368637,-4.0928717,1,0
-1.8311509,-5.0562544,-4.2644715,1,0
-2.1186965,-5.983957,-4.2624025,1,0
-1.3096423,-9.746119,-3.9455614,1,0
-0.21946824,-11.326651,-3.7591462,1,0
0.31382632,-14.093066,-2.892256,1,0
-0.2848131,-16.827063,1.5507151,1,0
-0.5159409,-14.23158,5.30338,1,0
20.151188,25.692764,15.395136,1,0
33.63514,62.10845,15.451002,1,0
11.652302,54.327354,-10.750827,1,0
5.4289327,23.039686,-4.6627917,1,0
3.907643,9.415209,-3.3878746,1,0
0.5216277,-2.8792357,3.0682967,1,0
0.031662703,-3.9765544,5.7990885,1,0
2.2768672,-9.959898,3.7752664,1,0
1.1300298,-18.52529,-0.3603565,1,0
-1.0019084,-20.268057,0.39589855,1,0
-0.9447754,-16.006609,1.769346,1,0
-0.5751999,-13.119238,1.4271795,1,0
1.0187863,-8.663098,0.20491251,1,0
0.59764946,-9.959741,0.77913266,1,0
-0.16978657,-9.715834,2.936368,1,0
-1.0062537,-0.54443425,5.0676427,1,0
3.659903,4.6059823,-1.6281348,1,0
5.6343946,18.785513,-2.377941,1,0
2.9185781,24.556395,7.058272,1,0
3.5480263,18.726988,7.099416,1,0
0.110024214,3.0289717,4.2806993,1,0
0.87381256,-0.43101582,2.2021623,1,0
1.8705429,-3.5051494,3.0908222,1,0
1.9849751,-6.488695,2.65632,1,0
1.7356011,-9.076843,0.75179625,1,0
0.07583621,-12.627477,-0.87900454,1,0
-0.4427591,-11.175982,-0.24580361,1,0
0.09189662,-7.4085517,-0.7153566,1,0
-1.0072657,-4.5973473,-0.013998359,1,0
-1.2012907,-1.4287757,0.8035543,1,0
-0.3841967,8.820187,-1.6203036,1,0
-0.3968591,10.490442,-1.9805443,1,0
-1.0489517,9.676582,-2.005315,1,0
-1.4798733,7.8187776,-2.7462952,1,0
-1.4997526,5.9462495,-2.9479053,1,0
-0.8789471,0.051077753,-1.4126722,1,0
-0.5349389,-2.9696157,-0.48769298,1,0
-0.19743232,-7.4830227,-0.010961604,1,0
0.14124756,-8.125087,-0.0596731,1,0
0.23217879,-7.2568,-0.091157965,1,0
0.3236181,-4.811129,0.002769975,1,0
0.39681053,-3.0166852,0.27270603,1,0
0.5258284,1.6937121,0.9284727,0,1
0.39517313,5.7573533,1.2371868,0,1
0.38951182,6.951609,1.1155223,0,1
0.20590454,6.8179708,0.6130204,0,1
0.17892873,5.515385,0.5938178,0,1
0.24838884,1.5380067,0.78162485,0,1
0.08250362,-2.4950716,0.6457509,0,1
-0.09941912,-4.027325,0.49201217,0,1
-0.31195906,-5.562422,0.038250126,0,1
-0.266666,-5.443428,-0.15974757,0,1
-0.16884406,-3.7991216,-0.5357427,0,1
-0.23661628,-1.0504626,-0.32323027,0,1
-0.18735993,0.42988107,-0.029751569,0,1
-0.08911585,3.0363414,0.036450204,0,1
-0.089539096,3.8815382,-0.21032465,0,1
-0.08300088,3.922055,-0.47664008,0,1
-0.010375097,1.8514031,-0.4547998,0,1
0.013111129,0.5764198,-0.3333981,0,1
-0.060406264,-1.4432935,0.137163,0,1
-0.07728831,-2.1341436,0.33233124,0,1
-0.18229635,-2.917198,0.26179257,0,1
-0.29880437,-2.7186835,0.059818834,0,1
-0.24686626,-2.2150095,0.1925326,0,1
-0.19538869,-0.5536346,0.19856516,0,1
-0.21598294,0.123835556,0.049177088,0,1
-0.039341487,1.0520076,0.09347803,0,1
0.014841259,1.1932591,-0.12564558,0,1
0.10744801,0.95127386,-0.124930106,0,1
0.3613511,-0.3192062,0.021921935,0,1
0.41750935,-1.1815547,-0.046951633,0,1
0.36218187,-1.8760451,0.24661313,0,1
0.16187641,-1.027378,0.43083575,0,1
0.033064097,-0.73272604,0.30976447,0,1
-0.7469411,-0.5599517,0.105800554,0,1
-1.0980821,-0.3261099,0.13665636,0,1
-1.0803807,0.5899686,0.54275054,0,1
-0.72201127,1.5272263,0.62503797,0,1
-0.2300475,1.3179024,0.4266368,0,1
0.6420305,0.55046654,0.38663378,0,1
0.7708044,0.23006059,0.3534115,0,1
0.79841757,0.03697779,0.16160527,0,1
0.96470296,0.3363495,0.39858192,0,1
1.0464808,0.46094325,0.5707823,0,1
1.1059904,0.3715506,0.8013546,0,1
1.0168527,0.33796218,0.737269,0,1
0.6055527,0.17592052,0.6887505,0,1
0.20203228,0.23032668,0.70612556,0,1
-0.09086172,0.22707082,0.6102475,0,1
-0.61978686,-0.16543388,0.073419385,0,1
-0.6772624,-0.26398563,-0.28707218,0,1
-0.5465668,-0.25388527,-0.5139403,0,1
-0.79762816,0.18296807,-0.94906247,0,1
-0.8924654,0.25693786,-1.4168442,0,1
-0.8332703,0.18416297,-1.7245514,0,1
-0.7310115,0.3761853,-1.4065937,0,1
-0.38964435,0.7017364,-0.020319425,0,1
-0.13086635,-0.6523398,1.6100544,0,1
0.08455938,-1.634649,2.0165305,0,1
0.3110029,-2.148536,2.2731843,0,1
0.23068053,-1.8294585,1.7689728,0,1
0.014780553,-0.35960767,0.096179016,0,1
0.36185834,1.1178797,0.72778064,0,1
0.6729324,1.5351458,1.852275,0,1
0.42541584,1.6366501,1.5169766,0,1
0.1012716,1.6718806,0.24797738,0,1
0.40784174,2.102474,-0.5494405,0,1
1.2140338,1.6245679,0.29861522,0,1
1.2137758,0.98692036,0.12399743,0,1
1.0108683,0.9442882,-0.13268824,0,1
0.93637156,0.8985834,0.37481707,0,1
0.63599646,-0.21881573,0.90021116,0,1
0.20235917,-0.2307348,0.1592446,0,1
0.02095477,0.49877545,-0.105058156,0,1
-0.2602177,1.6066092,0.5920159,0,1
-0.4503923,1.801072,1.05729,0,1
-0.61889803,2.2237184,0.96893454,0,1
-0.9459589,3.5891225,1.320706,0,1
-1.1576319,3.8555934,1.9280249,0,1
-1.2711188,3.7240856,2.539396,0,1
-1.0939062,3.7788646,2.639514,0,1
-0.4304254,3.5234964,1.9943082,0,1
0.6590342,2.5441558,-0.10004623,0,1
0.88114613,2.1806467,-1.0723262,0,1
0.2715817,1.0821521,-1.6058328,0,1
0.07824755,0.24093047,-1.6994686,0,1
0.60502833,-1.3886346,-1.5277997,0,1
1.585224,-2.7583687,-0.5329,0,1
1.7895533,-3.1519802,-0.82516634,0,1
1.2271717,-2.9864838,-2.2871413,0,1
0.5189855,-2.3321803,-2.7313688,0,1
-0.4674698,-1.7064333,-1.2590556,0,1
-0.20912603,-1.4678334,0.8340871,0,1
-0.18194208,-1.406495,1.1996485,0,1
-0.23897755,-1.639614,1.1378977,0,1
-0.26031542,-1.7529296,1.1434273,0,1
-0.24246466,-1.9119529,1.0302435,0,1
-0.39340675,-1.7381762,0.076231636,0,1
-0.4673679,-1.5972689,-0.42196593,0,1
-0.30012605,-1.5888604,-0.59960634,0,1
-0.1594111,-1.5442265,-0.26814342,0,1
0.0806365,-1.8717192,0.53760266,0,1
0.4235143,-1.8280756,1.3229076,0,1
0.5059194,-1.762778,1.7495555,0,1
0.60836303,-1.829097,2.8016546,0,1
0.7332586,-1.7851522,3.1894298,0,1
1.0122944,-1.650912,1.6664519,0,1
0.35660866,0.20064634,-1.2271686,0,1
-0.22228408,1.1449802,-2.2968051,0,1
-0.7829453,1.9106386,-2.5095885,0,1
-0.48702937,1.9272926,-1.6869717,0,1
0.19116816,1.7703141,0.06883878,0,1
-0.41771075,0.73851293,0.13663982,0,1
-0.9041948,0.15181251,-0.25612825,0,1
-1.3724872,-0.6800728,-0.8367941,0,1
-1.1779575,-1.2116127,-0.92247325,0,1
-0.2640409,-2.5528886,-0.96051097,0,1
0.16771895,-3.2203195,-1.4253887,0,1
0.17536616,-2.8364942,-1.6027092,0,1
0.14389521,-1.6148672,-1.5059305,0,1
0.26944897,-1.0497264,-1.1607839,0,1
0.58741456,-0.2016668,-0.11147875,0,1
0.5572026,0.018331554,0.30326837,0,1
0.42950115,0.5758733,0.26354644,0,1
0.21635121,1.6835479,0.34149858,0,1
0.3115651,1.7565802,0.69750524,0,1
0.63019204,2.055621,1.5642793,0,1
0.6060111,1.4134398,1.4288361,0,1
0.7382198,0.90169144,1.1863184,0,1
0.9597729,-0.66266334,1.1850342,0,1
0.6887269,-1.4189861,1.5733172,0,1
0.32514164,-1.9270394,1.6033427,0,1
-0.020599365,-2.0624044,1.4360282,0,1
0.006112635,-1.6383197,1.3641292,0,1
-0.27480185,0.2033291,0.6412251,0,1
-0.43542427,1.8420457,0.32448864,0,1
1.3499959,5.0631833,-0.007610466,0,1
1.667478,2.8293884,-2.4031394,0,1
0.3912413,0.65649396,-3.3701005,0,1
-1.6176972,-3.0758052,-2.9434257,0,1
-1.765881,-3.3785267,-1.801236,0,1
-0.9070283,-1.6745318,0.55212057,0,1
-0.11497176,1.5161542,1.3265581,0,1
0.30438605,2.137841,0.99847233,0,1
0.49359632,1.2660769,0.32246858,0,1
-0.04464587,0.9591426,-0.08625896,0,1
-1.0341651,0.013793899,-0.44531593,0,1
-0.58515775,-0.75039476,0.28692463,0,1
-0.18587722,-0.8130464,0.53928,0,1
-0.09754431,-1.165305,1.2403593,0,1
-0.25083143,-1.0402858,1.6151481,0,1
0.31338394,-1.4730432,1.6188576,0,1
0.5062576,-1.0919513,0.6660344,0,1
0.37065732,0.8631086,-0.50055736,0,1
1.4652865,4.3586392,-2.7352521,0,1
0.9973746,3.2971199,-2.089399,0,1
-0.5320242,0.4239921,-0.5448029,0,1
-0.15140742,-1.2540883,-0.8239845,0,1
0.928691,-1.887864,-0.5352098,0,1
2.4230833,-0.20276071,-1.8864603,0,1
2.2424917,0.46406928,-2.4869716,0,1
1.1355681,-0.6095238,-2.3199394,0,1
0.9118729,-0.53361416,-1.9716128,0,1
1.1997744,-0.36787608,-1.6312417,0,1
1.5361755,0.38197607,-1.4226067,0,1
1.4424015,0.49319166,-1.6718116,0,1
0.5664885,0.42992008,-2.4012198,0,1
-0.3233363,0.23822579,-2.731398,0,1
-0.53891945,-0.025848536,-2.9242666,0,1
-0.34173656,0.28393635,-2.6697693,0,1
-0.20688313,0.7187565,-2.1904697,0,1
-0.7675381,0.44442073,-0.7780372,0,1
-0.13813156,-1.1669043,-0.93756205,0,1
0.2634297,-1.339777,-1.7365724,0,1
-1.6168213,3.197459,-1.6989404,0,1
-1.3617334,2.5072362,-1.1071812,0,1
-0.14509004,-1.4108561,-1.1258359,0,1
-0.88517797,-1.1869677,-0.5665577,0,1
-1.1981664,-0.7821903,-0.27518475,0,1
-1.8129667,-0.09847737,0.62336844,0,1
-1.8066405,0.2544479,0.8477439,0,1
-1.3829622,1.0044669,0.7906417,0,1
-1.1017241,0.83346266,0.72858644,0,1
-0.80348796,0.4775047,0.49224368,0,1
-0.3970448,0.14063548,0.05877763,0,1
-0.39698005,0.025740616,0.084877394,0,1
-0.47710422,-0.41948697,0.48041704,0,1
-0.05628556,-0.6260757,0.669093,0,1
0.112539396,-0.48538297,0.5285153,0,1
-0.017205033,-0.39606282,-0.13834102,0,1
-0.14105625,-0.5299434,-0.29766145,0,1
-0.090406716,-0.40904614,-0.08829406,0,1
-0.18718816,-0.48681924,0.23849785,0,1
-0.51140356,-0.6931638,0.24556957,0,1
-0.82445824,-0.33455563,-0.13650806,0,1
-0.6606319,0.20367807,-0.5870849,0,1
-0.16375738,0.38497245,-1.6873406,0,1
0.24085921,0.5725831,-0.9283764,0,1
-0.102596104,1.4899224,0.80441064,0,1
-0.52789664,2.2010345,3.32151,0,1
-0.08182919,1.13128,2.6634376,0,1
0.43898523,-1.193201,-0.12230927,0,1
-0.76930976,-1.5572404,-0.558885,0,1
-1.4205014,-0.9677973,0.07017516,0,1
-1.4401758,0.07675077,1.2387191,0,1
-1.0237839,0.16687492,1.3966594,0,1
-0.7627505,-0.35962957,0.9943789,0,1
-1.113376,-0.4763765,0.71044374,0,1
-1.152269,-0.40534303,0.91266274,0,1
-0.9352641,-0.4624166,1.0457327,0,1
-0.86326575,-0.5117206,0.72435313,0,1
-0.584285,-0.28116322,-0.21906582,0,1
-0.4546781,-0.03175644,-0.66990614,0,1
-0.4729041,-0.012216613,-0.7350449,0,1
-0.39465725,-0.35895443,-0.63605535,0,1
-0.26635364,-0.6522293,-0.5594026,0,1
-0.1663206,-0.78370947,-0.51110476,0,1
-0.23719445,-0.5458316,-0.5133433,0,1
-0.26786652,-0.5335998,-0.46342883,0,1
-0.24410316,-0.7963905,-0.3423354,0,1
-0.2817126,-1.0682496,-0.352148,0,1
-0.3357225,-1.4619502,-0.36935633,0,1
-0.28616834,-1.271593,0.33648962,0,1
-0.28391668,-1.1553906,0.6847138,1,0
-0.25338358,-0.41674706,0.20762582,1,0
-0.34368533,0.28153035,-0.12927152,1,0
-1.4768573,-0.13085179,-0.4786504,1,0
-2.1111655,-2.7045767,-0.20929877,1,0
-1.7379684,-3.7116396,0.52138096,1,0
-0.3375723,-3.5029624,1.1093084,1,0
0.047912717,-3.0670912,0.8154377,1,0
0.14152236,-3.6461146,0.44039384,1,0
-0.081498206,-2.8000805,-1.161118,1,0
0.26356024,-1.603612,-2.2915983,1,0
1.5204859,-0.28281033,-4.2484097,1,0
1.4308491,-0.17686386,-5.2192445,1,0
0.31574106,0.6347167,-5.353107,1,0
-1.196927,0.81392545,-4.0941834,1,0
-2.1553414,0.9744622,-4.3277316,1,0
-0.81888777,-3.8049097,-3.4346693,1,0
0.32872534,-6.505159,-1.4704034,1,0
0.16227752,-4.1176133,2.1679947,1,0
-1.4217715,-2.9651961,8.012106,1,0
-1.1312485,-4.80966,12.289808,1,0
4.516769,-7.6631813,20.247042,1,0
0.47840738,-7.9526014,14.859901,1,0
-4.775499,22.085958,5.2648497,1,0
2.5818028,24.552687,7.911719,1,0
3.0071645,14.3534,9.23782,1,0
1.8069314,-3.5375872,5.8654246,1,0
0.57347786,-6.065835,2.6549501,1,0
-2.656394,-6.5719438,1.5964496,1,0
-0.16699159,-9.978325,2.660692,1,0
0.76833594,-10.962457,3.0147133,1,0
-0.17824006,-10.626405,2.7238588,1,0
-1.2420973,-9.42988,1.8286139,1,0
-2.5258224,-6.029322,-0.77018106,1,0
-2.0412445,1.3033521,-1.1325009,1,0
-2.0363297,4.5811124,0.16712463,1,0
-1.4055078,4.888207,-0.075192824,1,0
-1.3495097,6.5530972,-0.6294385,1,0
-1.3415551,8.305058,-0.5548191,1,0
-0.6217711,5.924188,0.020524103,1,0
-0.38879514,3.2195356,0.10020574,1,0
-0.6914032,-2.979976,-0.21428065,1,0
-0.7668505,-4.9713435,-0.38580176,1,0
0.050245997,-6.531036,-0.16890536,1,0
0.55668855,-5.25528,0.1776409,1,0
-0.08510777,-4.206634,0.84817827,1,0
-1.361538,-2.82738,0.96275604,1,0
-0.9787358,-2.0285761,0.3955309,1,0
-0.9188017,2.120777,0.78959167,1,0
-1.1945261,6.355822,0.7522747,1,0
-1.0936341,7.0357423,0.5154385,1,0
-0.73993635,5.1479783,0.08821091,1,0
-0.69868124,2.900667,-0.14801446,1,0
-0.662601,-1.6853083,-0.6290328,1,0
-0.7637049,-3.5774004,-0.31150162,1,0
-0.6373897,-3.3040273,0.03852456,1,0
-0.23792323,-1.5282325,0.42476317,1,0
-0.25620303,-0.60934347,0.3702911,1,0
-0.57543665,0.79403204,0.063736156,1,0
-0.7963692,1.6507767,-0.1382648,1,0
-0.90427995,1.9852036,-0.20092599,1,0
-1.2149868,1.3454274,-0.33598462,1,0
-1.1592634,0.85495555,-0.50544065,1,0
0.854897,2.0424354,-0.29477808,1,0
0.09373799,0.43186855,0.5645373,1,0
-0.08502805,-0.47644705,0.4551753,1,0
0.16482352,-1.2907933,0.2809435,0,1
-0.07275039,-1.382862,0.35515383,0,1
-0.3686381,-1.0133361,0.26639274,0,1
-0.5189098,0.030941943,-0.13412598,0,1
-0.46265727,0.6639241,-0.47031623,0,1
-0.119859055,1.4056233,-0.62431026,0,1
0.009129021,1.5538434,-0.10139117,0,1
0.29138747,2.6954763,0.457511,0,1
0.419119,4.708899,-0.26487356,0,1
0.12455059,4.315637,-0.2459528,0,1
-0.5981542,1.6584777,0.9269097,0,1
-0.68084824,0.67086697,1.3861334,0,1
-0.55241024,0.094968826,1.1475176,0,1
0.11129926,0.8212919,0.6822013,0,1
0.5239082,1.2067784,0.65128875,0,1
0.7749164,1.3598374,0.7799776,0,1
0.5510372,1.0822076,0.93291813,0,1
-0.06004028,0.32270622,0.62910664,0,1
-0.42027235,0.10337541,-0.08356323,0,1
-0.35359356,-0.01604939,0.022688314,0,1
-0.083060995,-0.6470346,0.57292116,0,1
-0.07918459,-1.0289649,0.8281283,0,1
-0.22901317,-1.6383599,0.9842604,0,1
-0.3220244,-2.100982,0.8141535,0,1
-0.5455003,-2.2023814,0.54387754,0,1
-1.1976317,-2.446307,-0.34182712,0,1
-1.350297,-2.3528564,-0.4916651,0,1
-1.332733,-1.125432,-0.8134924,0,1
-0.89808697,0.14678656,-2.2005758,0,1
-0.5024264,0.30858025,-2.0700302,0,1
0.4248517,0.08377261,-1.2476729,0,1
0.6991974,-0.3313713,-1.1019092,0,1
0.9572979,-1.0430602,-0.96658415,0,1
1.1114705,-0.6414966,-0.56666267,0,1
1.0844754,-0.37574288,-0.4960575,0,1
0.7576853,-0.822668,-0.7921132,0,1
0.31194147,-1.5016478,-0.9869241,0,1
-0.2966623,-2.551247,-1.4201391,0,1
-0.97421694,-2.2481825,-1.4180279,0,1
-1.1950772,-1.3170948,-1.1949042,0,1
-1.1027061,0.4665927,-0.93624485,0,1
-1.2346914,0.26536262,-0.992874,0,1
-2.149962,-0.6426831,-0.99358445,0,1
-1.5228056,0.63341606,-0.29434416,0,1
-0.8298787,1.826497,0.08030184,0,1
-0.282512,3.9556148,0.65715975,0,1
-0.46116072,4.235973,0.8685901,0,1
-0.66226685,3.775604,1.7076081,0,1
0.29695332,2.652217,3.4201343,0,1
0.8481617,2.0231628,4.4459295,0,1
2.6700416,1.8067981,4.3210764,0,1
3.9812825,2.675149,2.7841241,0,1
2.6628802,3.4024312,-0.31262887,0,1
-1.0037068,-0.38619623,-1.7690588,0,1
-1.5112886,-2.2292178,-1.3975645,0,1
-0.89874184,-3.47457,-0.5331095,0,1
-0.47174639,-3.25832,-0.53488547,0,1
-0.07776286,-3.3948681,-0.4740581,0,1
-0.37985957,-4.3531046,-0.27531636,0,1
-0.8618502,-4.5058684,-0.014628861,0,1
-0.7508411,-2.8421924,0.5581216,0,1
-0.053103834,-1.5847052,0.6981087,0,1
0.4938103,0.4232483,0.21437602,0,1
0.15243092,0.9528732,0.02509982,0,1
0.44870996,0.8513479,0.7394131,0,1
0.6207112,0.5599623,1.4622179,0,1
0.48329866,0.30803305,1.649795,0,1
0.38952836,0.44402605,1.8014615,0,1
0.55713314,0.98313427,1.243045,0,1
0.85430586,1.5804596,0.9900599,0,1
1.2903287,3.0281332,0.4242383,0,1
0.9664558,3.2877147,-0.0482805,0,1
0.611533,3.1936548,-0.93178815,0,1
0.94022125,2.366885,-1.7235473,0,1
0.51930964,1.9699247,-1.8943143,0,1
0.42651802,1.7086198,-1.5828433,0,1
0.46398658,1.7554843,-1.5705776,0,1
0.23901898,2.0215662,-1.7363259,0,1
-0.16123235,1.5598953,-1.3230368,0,1
-0.47348607,1.0415914,-1.114685,0,1
-0.66228616,0.5335034,-0.94356775,0,1
-0.41516897,0.3979463,-0.72471035,0,1
-0.002068639,0.40205473,-0.46457788,0,1
0.40540206,-0.022479046,0.007911862,0,1
0.30011895,-0.6301612,0.17396772,0,1
-0.35619742,-1.7556847,0.2831598,0,1
-0.43963632,-2.2637064,0.32973996,0,1
-0.7456734,-2.5479329,0.31236672,0,1
-1.2302581,-2.5745237,0.40930876,0,1
-1.0469878,-2.3776205,0.6419874,0,1
0.122573584,-1.5464801,1.1890243,0,1
0.9012545,-1.3415582,1.4087594,0,1
2.0632753,-0.7409495,0.68630254,0,1
1.5776248,0.32619467,-1.9215667,0,1
0.33813834,0.94805604,-2.6926007,0,1
-2.1250334,0.53737813,-1.6801646,0,1
-0.5005004,0.75559795,-0.90822303,0,1
2.357646,0.9938717,-0.18081807,0,1
1.034038,-0.31431577,-0.45457754,0,1
0.0927743,-0.83009434,-0.7373784,0,1
-1.502481,-0.3748961,-1.3702554,0,1
-1.2837933,-0.44848162,-1.2745801,0,1
0.46978787,-1.3345546,-0.5422885,0,1
0.21626903,-1.7718123,-0.4191532,0,1
-0.2743204,-1.8609928,-0.46718743,0,1
-0.33825392,-1.0806149,-0.5595463,0,1
-0.12934327,-0.38162518,-0.5159996,0,1
0.38692898,0.6288213,-0.18458204,0,1
-0.4885112,0.56872934,-0.08346869,0,1
-0.900319,0.2879457,-0.19706939,0,1
-0.008721747,0.21665955,0.20008774,0,1
0.4866106,0.3234377,0.5786353,0,1
-0.355293,-0.21738528,0.26388273,0,1
-1.0084106,-1.4196166,-0.5715745,0,1
-0.6396564,-1.1462611,-0.5988404,0,1
0.28602335,0.065838814,0.06960208,0,1
0.30920416,0.3951435,0.327184,0,1
-0.37704358,0.06818389,0.22163177,0,1
-0.197023,-0.25502583,0.07982211,0,1
0.24048829,-0.040514924,0.29969963,0,1
0.32448488,0.63532346,0.41247135,0,1
0.13806999,0.56505483,0.2163655,0,1
-0.11688721,0.03214739,-0.25277188,0,1
-0.06700342,0.12667367,-0.19464074,0,1
0.049647383,0.28032395,-0.045486905,0,1
0.022590447,0.0984764,-0.08785178,0,1
0.037848905,0.004588122,-0.12905088,0,1
0.121806376,0.30215928,-0.05731641,0,1
0.13913557,0.8712062,0.1282656,0,1
-0.07024871,0.9721994,0.04667671,0,1
-0.4407099,0.7328767,-0.3740209,0,1
-0.2386685,0.80739397,-0.29894507,0,1
-0.2110514,0.73413557,0.026004253,0,1
-0.2820139,0.33305833,0.013044861,0,1
-0.34451288,0.299345,-0.07592653,0,1
-0.2686471,0.37187764,-0.0134804,0,1
-0.18135667,0.34405324,0.06331079,0,1
-0.1599811,0.28508565,0.13871892,0,1
-0.32184863,0.26461884,0.15142396,0,1
-0.3828846,0.24457549,0.13710487,0,1
-0.23203443,0.24340151,0.2005798,0,1
-0.084959894,0.1556387,0.26828247,0,1
0.06984467,-0.05671785,0.38838473,0,1
0.06572204,-0.27961344,0.3728163,0,1
-0.039275654,-0.28312108,0.2935738,0,1
-0.08076734,0.014128687,0.09518892,0,1
-0.019382391,0.17662142,0.116345204,0,1
0.060671315,0.16920185,0.27208585,0,1
0.0619358,0.0863638,0.26441425,0,1
0.10887562,0.17353249,0.23994789,0,1
0.24782717,0.4413643,0.2502566,0,1
0.28641665,0.4960556,0.21150047,0,1
0.18810774,0.22206593,0.09219365,0,1
0.07634246,-0.14250945,0.075484484,0,1
0.068800166,-0.19185351,0.064444,0,1
0.14239079,-0.10600947,0.023166617,0,1
0.18437988,-0.091509804,0.060747962,0,1
0.17447805,-0.017402632,0.21416269,0,1
0.18515524,0.09546662,0.2430826,0,1
0.21692836,0.081475265,0.16418098,0,1
0.23960401,-0.07920931,0.047832835,0,1
0.19903788,-0.15956971,0.06355394,0,1
0.1552287,-0.42455766,0.11692465,0,1
0.1314789,-0.5434608,0.056158625,0,1
0.13139893,-0.37862775,-0.008054643,0,1
0.27117497,0.05291367,0.045090932,0,1
0.22109875,0.1347351,0.101100385,0,1
0.012666598,0.1501293,0.032114495,0,1
0.004326741,0.2797775,0.015473163,0,1
0.0024189,0.362215,0.068666875,0,1
0.013809532,0.35365006,0.018569458,0,1
0.11466238,0.1246252,-0.021385645,0,1
0.18646492,-0.51139635,-0.050391827,0,1
-0.3959363,-0.29016685,-0.1967164,0,1
-0.42878288,0.2588014,-0.10772891,0,1
0.28059813,0.9036264,0.2935751,0,1
0.5013139,0.68151665,0.40589133,0,1
0.37057412,-0.031846013,0.4481768,0,1
0.16181524,-0.32747453,0.41831648,0,1
0.04008746,-0.34423727,0.3800754,0,1
-0.17597094,-0.20667456,0.040122055,0,1
-0.12212603,-0.06742287,-0.11558828,0,1
0.06494416,0.127326,-0.1240718,0,1
-0.072946,0.20516491,0.26870474,0,1
0.07384385,0.2860937,0.5307908,0,1
0.68690526,0.4184208,0.5839081,0,1
0.6298102,0.36353588,0.32312727,0,1
-0.11538409,0.024960507,-0.12096798,0,1
-0.5029775,-0.090663925,-0.17350411,0,1
-0.32581216,-0.08608151,-0.09201589,0,1
0.30416727,-0.14610764,0.075122185,0,1
0.43501335,-0.1977844,0.16963862,0,1
0.07874261,-0.31194207,0.15478595,0,1
-0.25237674,0.053331364,-0.06565337,0,1
-0.18626964,0.40499493,-0.107932396,0,1
0.13001753,0.78095144,0.010922782,0,1
0.2670899,0.7193822,0.06665212,0,1
0.19802096,0.4581661,-0.09744585,0,1
-0.21605843,0.25563234,-0.2663436,0,1
-0.24150464,0.18828484,-0.24831623,0,1
-0.04932121,0.08104227,-0.22734231,0,1
-0.024318434,0.08955953,-0.26865304,0,1
-0.027802557,0.2792539,-0.35741973,0,1
0.05340454,0.37376016,-0.37931734,0,1
0.07825644,0.39246172,-0.43914476,0,1
0.04183659,0.27767175,-0.56735015,0,1
0.026374534,0.16238685,-0.5357556,0,1
-0.060974747,0.11008832,-0.4949406,0,1
-0.4215285,-0.13281538,-0.5595915,0,1
-0.48899975,-0.33266354,-0.635517,0,1
-0.58475935,-0.5387068,-0.75711614,0,1
-0.8470403,-0.3686705,-0.7309791,0,1
-0.92361623,-0.36220458,-0.66430426,0,1
-1.2827327,-0.76540756,-0.20604779,0,1
-1.5341,-0.9806242,0.118179135,0,1
-1.6127089,-0.3938913,0.6349419,0,1
-1.2727054,0.42139336,0.82647496,0,1
-0.52313477,1.9231623,1.5469037,0,1
-0.42910653,1.7321272,1.9311246,0,1
-0.5993675,1.0188313,1.8680931,0,1
-0.88188654,-0.820464,1.758228,0,1
-0.89236987,-1.5193719,1.7540087,0,1
0.32372278,-2.456648,1.1931906,0,1
1.6358951,-2.7601202,0.18952683,0,1
1.1421367,-2.3247592,0.020985665,0,1
0.7180201,-0.12084099,0.26282078,0,1
0.86153626,1.243821,0.5498726,0,1
0.6483762,2.6930158,0.05747754,0,1
0.219509,3.2628915,-1.3346667,0,1
0.20571762,2.9453046,-1.4321247,0,1
1.2205621,1.0448922,-1.0967541,0,1
1.5899429,0.2806339,-1.0535142,0,1
1.3159801,-1.8794259,-0.8870044,0,1
0.13843945,-3.775061,-0.42949012,0,1
-0.43056005,-4.1914873,-0.30797336,0,1
-1.003353,-2.9259417,0.20876308,0,1
-0.8654862,-0.69290155,0.33842677,0,1
1.4629916,3.661619,0.42660105,0,1
2.8303576,3.2829893,0.7495027,0,1
2.4487655,1.5779524,0.9152426,0,1
2.1345477,-2.0806668,0.97125626,0,1
2.082467,-2.322312,0.83612,0,1
0.8368741,-0.15022366,0.86336505,0,1
0.44453967,1.4053688,1.4210863,0,1
0.6034737,1.4740677,1.5306418,0,1
0.52139777,0.6923065,0.82531863,0,1
0.7165513,0.002471957,0.3399096,0,1
1.5819033,-1.0182837,-0.13541102,0,1
1.1810127,-1.10855,-0.50259584,0,1
0.6863645,-0.93622774,-0.5970446,0,1
0.06344274,0.054387055,-0.78612673,0,1
-0.26626316,0.75051486,-0.5569009,0,1
-0.29627356,1.056012,-0.082180664,0,1
0.5228651,-0.3223085,-0.35319754,0,1
0.65456945,-0.7751464,-0.46809047,0,1
0.0880674,-0.6349973,-0.38187066,0,1
-0.18525651,-0.37547016,-0.23430918,0,1
-0.22439434,0.26005456,0.06498805,0,1
0.08034608,0.4882011,0.103338264,0,1
0.0814602,0.2431898,0.05410472,0,1
-0.011856066,-0.26813218,-0.09264482,0,1
0.06829631,-0.322175,-0.11402019,0,1
0.32438827,-0.12208556,-0.074102014,0,1
0.27840775,0.07164383,-0.007941093,0,1
0.2063532,0.050688744,-0.022281328,0,1
-0.00259978,-0.042664528,-0.11250494,0,1
-0.10283783,-0.07327843,-0.10342746,0,1
-0.13711914,-0.039132122,-0.068883196,0,1
-0.12087746,-0.03472042,-0.010257674,0,1
-0.09683626,-0.041999817,-0.025906896,0,1
-0.04680933,0.071589455,-0.1206893,0,1
-0.076864354,0.13885781,-0.2367608,0,1
-0.15200987,0.35370916,-0.6386646,0,1
0.4727742,0.6997889,-0.99512035,0,1
0.9929263,0.710885,-1.0846429,0,1
1.6933603,0.045961406,-0.21409786,0,1
1.61122,-0.48707762,0.2976484,0,1
1.1875546,-1.1126612,0.50034374,0,1
0.60729355,-0.44289577,1.4600786,0,1
0.45573047,-0.000800983,2.0061584,0,1
0.9198516,0.34964666,1.992633,0,1
1.1101472,0.12589559,1.790844,0,1
0.37047923,-0.12436953,1.622576,0,1
-0.42006767,-0.07125273,2.0080152,0,1
-0.46289796,-0.12046041,2.1892595,0,1
-0.48044413,-0.493389,2.4410248,0,1
-0.4433611,-0.7636164,2.428121,0,1
-0.16887444,-0.9523276,1.6178454,0,1
0.16112937,-0.9172563,0.28057268,0,1
0.18275294,-0.43998143,0.06035791,0,1
-0.354759,1.7217368,-0.5323571,0,1
0.67735934,2.40392,-0.9987819,0,1
1.1433042,2.1420782,-2.0086937,0,1
-0.16368425,0.243801,-2.197552,0,1
-0.59290487,-1.0555315,-1.9827144,0,1
-1.7220607,-1.5259838,-2.1735713,0,1
-1.8370382,-1.1863375,-2.1742158,0,1
-0.7342287,-0.5858546,-1.5601964,0,1
-0.32979536,-0.12356477,-1.0644779,0,1
-0.3422745,0.008926335,-1.0224507,0,1
-0.5281531,0.3017291,-1.094867,0,1
-0.86423695,0.27844512,-1.3283443,0,1
-1.4432738,0.14698301,-1.9779074,0,1
-1.1000284,-0.27958307,-2.2675111,0,1
-0.9747176,-0.43487462,-2.3141444,0,1
-1.0687937,-0.22376168,-2.460336,0,1
-0.9209597,-0.07077803,-2.575413,0,1
-0.13734585,-0.16465007,-2.657926,0,1
0.613241,-0.67972374,-2.2069986,0,1
0.7617429,-0.42555624,-2.1552033,0,1
0.87230337,0.7788313,-2.4026318,0,1
0.96781904,1.161063,-1.8511494,0,1
0.9826942,1.4432526,0.86569196,0,1
1.0351269,1.1281681,2.6940024,0,1
0.4384727,0.34407818,3.1393783,0,1
-1.1159917,-0.421832,2.0147562,0,1
-1.1597015,-0.017770717,1.6457018,0,1
-0.97345394,0.80362123,0.9413172,0,1
-1.0353868,0.7034902,0.2938994,0,1
-1.1526508,0.279437,0.03093709,0,1
-1.1498315,-0.48960212,-0.8806533,0,1
-1.0345224,-0.60287666,-1.1441157,0,1
-0.79435194,-0.894536,-0.69024086,0,1
-1.2395911,-1.3683156,-0.36201724,0,1
-1.3868128,-1.3155823,-0.60269576,0,1
-0.6632923,-0.86946875,-2.3773992,0,1
0.3635404,-0.66377646,-2.4115913,0,1
1.9822823,-0.60458356,1.513209,0,1
1.6364422,1.2536736,1.9102783,0,1
1.8469908,2.1543815,0.17866355,0,1
0.5054721,0.87045187,-0.035152897,0,1
0.07921824,-0.7896852,0.12238122,0,1
-0.28442174,-2.5208437,-0.2207201,0,1
-1.0317897,0.379426,1.2776062,0,1
-1.8106792,1.5485581,1.7895478,0,1
-2.328373,1.0078725,1.1850225,0,1
-1.4617345,0.46842474,-0.018013204,0,1
0.5466763,-0.022132004,-2.1534553,0,1
-0.31853992,-0.8304587,-2.1501822,0,1
-1.2563332,-0.34883508,-1.7407438,0,1
-1.7584009,0.2560509,-1.5255057,0,1
-1.6540103,-0.3389636,-1.9652773,0,1
-1.5840582,-2.0447493,-2.4514198,0,1
-1.4242436,-3.637381,-2.1316335,1,0
-1.0946723,-4.3702188,-1.8552023,1,0
0.18874896,-5.3136477,-1.624826,1,0
0.3288976,-5.0599847,-1.9060507,1,0
0.10650092,-3.487336,-1.540034,1,0
0.7971246,-0.6169863,-1.7467513,1,0
1.4856786,0.37112698,-3.374018,1,0
2.2569525,2.4532351,-6.601657,1,0
1.7757473,2.6124883,-7.4058266,1,0
-0.7289059,-2.2133336,-4.052586,1,0
-3.7831974,-7.6228366,1.0991303,1,0
-5.6704493,-8.605763,0.82392776,1,0
-7.192685,-10.812937,-1.8326882,1,0
-5.3317003,-10.301346,-2.0094504,1,0
-2.4858193,-2.530853,1.3343226,1,0
-0.9946406,9.767994,6.289375,1,0
3.1313615,20.666357,6.730505,1,0
14.790138,35.10494,3.4799685,1,0
13.479464,27.206312,6.6604247,1,0
2.358324,6.516528,6.6742134,1,0
-5.090565,-0.55062765,3.079285,1,0
-4.1469636,-2.986879,3.7728674,1,0
-0.2716291,-7.4857106,2.9652762,1,0
1.5215803,-8.466866,2.799975,1,0
3.6696966,-9.855907,1.3149978,1,0
2.7297776,-10.431525,0.8451912,1,0
0.55831105,-8.990369,1.9140804,1,0
-4.1794605,1.2757709,0.6397627,1,0
-1.8593609,-0.28542036,1.8907354,1,0
3.2444758,-2.392807,3.62828,1,0
4.950799,2.5688505,4.507038,1,0
4.997814,5.119211,4.172646,1,0
5.2908554,9.390028,3.5042605,1,0
5.415514,10.125776,3.3131776,1,0
5.919402,8.466103,3.330286,1,0
3.7068658,4.56679,2.973427,1,0
3.257924,2.3810225,2.9147282,1,0
4.0761137,-1.8775222,1.0515383,1,0
3.6711905,-3.3904302,0.3162065,1,0
0.74709636,-4.833386,0.354797,1,0
-1.4506023,-4.6770372,0.22807404,1,0
-2.0027847,-4.3493586,0.12777583,1,0
-3.114765,-3.4368122,0.23286754,1,0
-3.7438567,-2.8505185,0.24122551,1,0
-4.4694333,-1.2369299,-0.4891879,1,0
-4.4220943,0.9164674,-1.0260984,1,0
-4.095561,1.9248197,-1.0289582,1,0
-2.9633133,3.0853019,-1.4052742,1,0
-2.2633486,3.0917735,-1.8379472,1,0
-0.9775035,2.57454,-2.014658,1,0
-0.62306505,1.418637,-1.2140404,1,0
-0.28792462,0.559451,-0.9234489,1,0
-0.19646347,-0.92051405,-0.34795403,1,0
-0.1911749,-1.4001454,-0.06089463,0,1
0.6612416,-2.128836,-0.034738354,0,1
1.6387291,-2.2532938,-0.67118895,0,1
1.8686954,-2.0037858,-0.85556006,0,1
1.8593323,-1.0575608,-0.40094054,0,1
1.6723415,-0.622013,-0.025339989,0,1
1.2880377,0.07396988,0.32536784,0,1
1.1679237,0.97593117,0.77653784,0,1
1.1581407,1.3505936,0.84505033,0,1
1.4751894,1.6169623,0.43219283,0,1
1.4911315,1.6591347,0.29721817,0,1
0.7482796,1.4410676,0.64515525,0,1
0.33915937,0.5836115,0.52329993,0,1
0.30270767,0.21175003,0.28238508,0,1
0.15973836,-0.3676519,-0.05427641,0,1
0.12997533,-0.5932464,-0.13245581,0,1
0.28018034,-0.8735046,-0.3587982,0,1
0.05443176,-0.9544067,-0.023970865,0,1
-0.100418374,-0.84217733,-0.11259033,0,1
-0.032124624,-0.36118984,-0.49486208,0,1
0.00162065,-0.13013174,-0.69079196,0,1
-0.0280032,0.3320083,-0.66025317,0,1
0.16857399,0.7380609,-0.56216675,0,1
0.17947629,0.8454456,-0.61140096,0,1
0.2704075,0.7626018,-0.616893,0,1
0.21185173,0.6537389,-0.39587855,0,1
0.4211324,0.4524307,-0.49008265,0,1
0.56416583,0.15767096,-0.31310704,0,1
0.4669497,-0.009613987,-0.1821774,0,1
0.21237627,-0.35811135,0.052762438,0,1
0.17815742,-0.51692384,0.16508488,0,1
0.3102306,-0.5939874,0.21069309,0,1
0.122328445,-0.7345256,0.4366053,0,1
-0.13508055,-0.7711467,0.3747637,0,1
-0.45044714,-0.8161172,0.28083333,0,1
-0.45305336,-0.7426805,0.34331772,0,1
-0.32930434,-0.25027367,0.48321494,0,1
-0.41860527,0.19095325,0.67207915,0,1
-0.55435383,0.17239286,0.8016728,0,1
-0.7335789,-0.014550176,1.0727644,0,1
-0.73791105,-0.10734077,1.1535168,0,1
-0.70205927,-0.29909414,1.0294993,0,1
-0.4296981,-0.91636455,1.273966,0,1
-0.24458864,-1.0452403,1.0942464,0,1
-0.28710368,-1.0166863,0.66070837,0,1
-0.35351896,-0.9636068,0.5189039,0,1
-0.20926242,-0.5180635,0.041447483,0,1
-0.42932698,-0.6528482,0.001739596,0,1
-0.57608545,-0.70399565,-0.007206165,0,1
-0.3158794,-0.6670417,-0.027456412,0,1
0.118947566,-0.44294927,-0.071134776,0,1
0.49214184,0.09694575,-0.43825907,0,1
-0.40090543,0.15176861,-1.1254934,0,1
-0.6436548,0.0636634,-1.2992928,0,1
-0.5742231,0.30056942,-1.3677953,0,1
-0.53235877,0.53145874,-1.2570486,0,1
-0.39515507,0.8499936,-1.1542861,0,1
0.114812255,0.86868846,-1.2468696,0,1
0.41073635,0.8808545,-1.2015749,0,1
0.60836655,0.74302953,-0.6834662,0,1
0.5794068,0.909316,-0.40610242,0,1
0.49335757,1.4214686,-0.1299277,0,1
0.9356092,1.8833703,0.3008656,0,1
1.1035035,1.7928466,0.6394934,0,1
1.6199865,1.2475634,0.99427474,0,1
1.7850173,1.1172428,0.9921796,0,1
1.8031819,1.7026186,0.84650123,0,1
1.1109083,1.6392068,0.23856786,0,1
0.65776217,1.4273719,-0.01360409,0,1
0.767191,0.78179264,0.2615834,0,1
0.76920676,0.82332134,0.55089074,0,1
0.12037927,1.4515036,0.58180296,0,1
-0.3456274,1.2283639,-0.22085577,0,1
-0.40300888,0.88086784,-0.481935,0,1
-0.97431797,0.5058583,-0.8417481,0,1
-1.1803322,0.4121436,-1.1574613,0,1
-0.9279946,0.069279596,-0.9158902,0,1
-0.73637605,0.23828408,-0.016333295,0,1
-0.4911547,0.15578651,0.43407503,0,1
-0.25051427,0.7284603,1.4308681,0,1
-0.20585787,0.7617092,1.9489994,0,1
0.5831244,-0.52085,2.6648595,0,1
-0.1719206,-0.0966281,1.7998655,0,1
-0.711853,-0.5941352,0.86227643,0,1
-1.4152976,-1.0519456,-0.1886189,0,1
-2.1838818,-0.64685255,-0.88687474,0,1
-2.4597087,0.72800434,-0.5328904,0,1
-1.1166452,1.0241479,0.47526968,0,1
0.38442764,0.005703011,0.6338747,0,1
1.157901,0.03655721,-0.3030098,0,1
0.2350303,0.8722161,-0.8751058,0,1
-0.47401285,0.5241431,-1.4660895,0,1
0.011797845,-0.22340971,-1.5168022,0,1
0.6268368,-0.10328202,-1.5012605,0,1
1.2689031,0.3748216,-1.4097066,0,1
0.93098474,0.44559664,-1.3245504,0,1
0.016852379,0.15121834,-1.2317779,0,1
-0.27152416,-0.4249535,-1.0806835,0,1
0.11779097,-0.5538988,-0.91710246,0,1
1.2780759,-0.83760446,-0.6447808,0,1
1.3420014,-0.9070005,-0.44709456,0,1
0.62080693,-1.1528729,-0.24380673,0,1
0.017741049,-1.1632823,-0.07109422,0,1
0.0842697,-1.3166398,0.044832017,0,1
0.5488249,-1.6883477,0.18503904,0,1
0.7725142,-1.6348904,0.23614055,0,1
0.875152,-0.89927566,0.3458277,0,1
0.11297986,-0.7143535,-0.53678614,0,1
-0.1920399,-0.81593895,-1.0737623,0,1
-0.49034256,-0.7286997,-1.391158,0,1
-0.61514026,-0.6279354,-1.3204887,0,1
-0.5704281,-0.24573523,-1.1920687,0,1
-0.33529055,-0.21146873,-0.8960308,0,1
-0.26546735,-0.10669713,-0.9754522,0,1
-0.16732757,-0.054415725,-0.4890512,0,1
-0.15070905,-0.22698116,-0.39935875,0,1
-0.051320404,-0.24026205,-0.52983403,0,1
0.25233015,-0.13188268,-0.69215095,0,1
0.38683534,-0.14051534,-0.79887736,0,1
0.68381566,-0.3336544,-1.0594153,0,1
0.68349534,-0.22448827,-1.11408,0,1
0.5739496,0.21457191,-1.0302187,0,1
1.2167712,0.06490989,-1.4338026,0,1
1.2313752,-0.5657339,-1.8743625,0,1
0.074938774,-1.8838701,-2.5756724,0,1
0.121091366,-1.7943993,-1.7338034,0,1
-0.026243612,-0.54027647,0.48110554,0,1
-0.112282395,2.503188,1.7444856,0,1
-0.34856293,3.2277248,1.2138137,0,1
-2.4424186,1.7275292,-2.8454235,0,1
-2.096983,0.4062431,-3.565691,0,1
-0.91293967,-2.047891,-1.7866014,0,1
-0.39153445,-2.0725763,0.46118778,0,1
-0.11534977,-1.0921792,1.2833481,0,1
0.040534854,-0.2907952,1.8819803,0,1
-0.20806736,-0.36949337,1.7596886,0,1
-1.100246,-0.4560489,1.0651397,0,1
-1.6749765,-0.17650795,0.6196199,0,1
-1.6883372,-0.06246377,0.5536686,0,1
-1.7950764,0.16423795,0.5342296,0,1
-1.9030168,0.17147918,0.43714705,0,1
-1.4881183,0.42470163,-0.05371561,0,1
-0.40243664,1.3149241,-0.75663453,0,1
-0.3457717,1.0136002,-0.9800309,0,1
-0.6411576,-0.27145007,-0.69372904,0,1
-0.48240343,-0.7412596,-0.62987715,0,1
1.000054,-0.6786794,-0.9637628,0,1
1.5133791,0.55467886,-0.25700182,0,1
1.288996,0.6924381,0.51263946,0,1
0.63678783,0.1756068,1.7533898,0,1
0.19517112,-0.19178094,1.7143942,0,1
-0.28707883,-0.34041208,1.106044,0,1
-0.41149524,-0.010641064,0.94862163,0,1
-0.34918335,0.046413448,0.82925755,0,1
-0.5514455,-0.21095178,0.70987594,0,1
-1.011554,-0.30516526,0.7406844,0,1
-1.660151,-0.42125317,0.7991128,0,1
-1.10713,-0.25182816,0.6023967,0,1
-0.6935006,-0.23945998,0.5002484,0,1
-0.55230594,-0.17939566,0.3255874,0,1
-0.7314154,-0.21063803,0.5121284,0,1
-1.1607592,-0.14013575,0.53376025,0,1
-1.5125251,-0.09914783,0.06462056,0,1
-1.6831146,-0.33034423,-0.085277244,0,1
-1.5574572,-0.487134,-0.46771094,0,1
-1.2857333,-0.2889357,-0.6360005,0,1
-1.224777,-0.047021933,-0.8947132,0,1
-1.1308823,0.24884593,-1.7339497,0,1
-0.9727324,0.9020422,-2.409736,0,1
-1.167327,2.5601277,-3.0750318,0,1
-1.9068079,3.0622916,-2.4388866,0,1
0.20136039,2.4747207,0.6037511,0,1
4.3499937,0.4253027,2.722185,0,1
4.8279247,-1.1958987,2.3442125,0,1
2.5242858,-2.0201375,0.8825842,0,1
1.3717917,-0.99451345,-0.10823885,0,1
1.3397205,0.22053815,-0.19592284,0,1
1.5164635,0.117428854,1.0058281,0,1
1.4611026,-0.06649104,1.0356821,0,1
1.3108726,-0.93570507,0.56431514,0,1
1.1473567,-1.1915587,0.36722684,0,1
0.64142054,-0.10070132,-0.11323484,0,1
-0.020497352,0.76298416,-0.95085853,0,1
-0.15647477,0.73319423,-1.3579437,0,1
0.18388075,0.061820902,-1.7744664,0,1
0.35316056,-0.28400043,-1.7584549,0,1
0.48878855,-1.0712432,-1.3712223,0,1
0.64676094,-1.2856282,-1.4526604,0,1
0.5948939,-1.4337254,-1.711815,0,1
0.03313327,-1.7234135,-2.2370822,0,1
-0.17380428,-1.7145529,-2.087305,0,1
0.09885135,0.05475231,-0.8724983,0,1
1.8899143,6.4438615,0.92305624,0,1
2.1342607,6.6524854,2.3474803,0,1
1.3223162,-0.6960305,0.03726969,0,1
0.6648724,-3.0285633,-1.2616467,0,1
-1.2623391,-1.3042955,-0.8719073,0,1
0.03233528,-0.82861125,1.6275952,0,1
0.81681657,-0.55343515,2.6648955,0,1
1.1656308,-0.16942386,3.2877624,0,1
0.72919905,-0.25169164,2.8946247,0,1
-0.36268425,-0.3265647,1.5679327,0,1
-0.7110587,-0.019326195,0.6463187,0,1
-0.77395856,-0.17826079,0.28076902,0,1
-0.7790507,-0.30259895,-0.064781174,0,1
-0.6402119,-0.13233185,0.037957452,0,1
-0.31455007,0.2147932,0.3347795,0,1
-0.33904397,0.099197395,0.42531246,0,1
-0.551392,-0.20470713,0.22504786,0,1
-1.6723686,-0.6670094,-1.1782551,0,1
-1.9853857,-0.6204682,-1.977798,0,1
-0.69335103,0.12480343,-1.9105285,0,1
-0.46843082,1.281866,-0.5459371,0,1
-0.4140718,1.3341588,0.21622197,0,1
0.5119804,1.2314262,1.8202993,0,1
0.9326624,0.9462443,2.4522493,0,1
1.3391829,-0.5741823,2.9333067,0,1
1.7761229,-1.0394332,2.546889,0,1
1.954834,-0.08078465,1.9680921,0,1
1.5748814,1.4836063,0.6644047,0,1
0.92844284,1.2141618,0.3972717,0,1
0.27575535,-0.31251234,0.52196264,0,1
0.47034693,-1.3519801,0.8001544,0,1
0.578908,-1.43196,0.82087547,0,1
0.7006881,-1.2197236,0.2328403,0,1
0.5981434,-1.1786345,-0.29601493,0,1
0.6160447,-1.0931395,-1.0337758,0,1
0.70163864,-0.62616533,-0.5667458,0,1
0.51601493,-0.30204865,-0.3001055,0,1
0.35733125,0.7112836,0.05507771,0,1
0.37991628,1.3103408,0.5774123,0,1
-0.7668104,2.551007,2.3239772,0,1
-3.0882328,0.2686644,2.8013802,0,1
-2.9477088,-1.2531384,2.172349,0,1
-1.7121072,-1.0104855,1.0599152,0,1
-1.2998145,0.13149926,0.22742933,0,1
-0.7396423,1.41693,-1.4947098,0,1
-1.1540558,0.91973764,-1.5897408,0,1
-1.2142503,0.2560109,-1.4654008,0,1
-1.0999675,-0.13844976,-1.6916189,0,1
-1.2505845,-0.20405303,-1.8630449,0,1
-1.6587183,-0.78042895,-1.6497731,0,1
-1.8243065,-1.6646748,-0.38935634,0,1
-1.6514375,-1.6262788,-0.13257661,0,1
-0.96719,-1.4317063,-0.6126794,0,1
-0.41680366,-1.0695513,-0.6127847,0,1
0.5317246,1.3218068,-0.40789747,0,1
-0.36210394,1.3536128,-1.0504277,0,1
-1.0495383,0.23072712,-0.8507337,0,1
-0.17338084,-1.3733119,0.01228536,0,1
0.72304386,-1.9522513,0.34940648,0,1
1.0185516,-2.9959033,0.5447729,0,1
-0.08682615,-2.5863535,0.20028408,0,1
-0.4709397,-2.1285722,0.06744575,0,1
-0.4776275,-1.454769,0.32125068,0,1
-0.59536695,-1.5034388,0.38805178,0,1
0.07786072,-1.8452386,-0.16855171,0,1
1.1198913,-1.9785346,-0.552821,0,1
0.8969241,-1.7561997,-0.77635854,0,1
0.7726298,-0.03764533,-0.26631704,0,1
0.39259237,0.6996946,-0.23394954,0,1
0.76007223,0.535448,-0.44510534,0,1
0.6625363,0.6820249,-0.11155703,0,1
-0.029307116,1.4047707,-0.089650825,0,1
-0.58357763,2.6525095,0.054298233,0,1
-0.58693707,3.2255542,0.20935544,0,1
-0.8049735,4.448259,0.18758526,0,1
-0.4891342,3.1019447,0.25379223,0,1
-0.008662805,1.6439141,0.5131549,0,1
0.52657676,-0.68236816,0.79620904,0,1
0.5037496,-0.7224511,0.5715937,0,1
0.5777737,0.054427166,0.21767005,0,1
0.24747002,0.766035,0.28061196,0,1
0.09295347,1.0278195,0.30875942,0,1
0.3087665,0.7943001,0.5132336,0,1
0.6761374,0.72169113,0.6465433,0,1
1.4411354,0.71786594,0.58905095,0,1
1.4759277,0.4814415,0.13634571,0,1
1.1785756,0.38127422,-0.08652314,0,1
0.6009142,0.010605793,-0.70538044,0,1
0.8469021,-0.26119232,-0.93093896,0,1
1.9349543,-0.60325235,-0.88340783,0,1
2.2602594,-0.6699714,-0.87130815,0,1
1.8154538,-0.55775255,-0.80037874,0,1
-0.1076245,-0.15532687,-0.82311046,0,1
-0.85983944,-0.02140337,-0.8588788,0,1
-1.7158679,-0.05032927,-0.5329666,0,1
-1.7284296,0.19405264,0.008280386,0,1
-1.5434526,0.58881366,0.14815453,0,1
-1.4665582,0.64498603,-0.15313384,0,1
-1.3790205,0.14354223,-0.23874058,0,1
-0.4163737,-0.50411505,-0.265646,0,1
0.51736,-0.30380437,-0.44995356,0,1
0.69398963,0.035691254,-0.4646144,0,1
0.6440531,0.17144106,-0.28955853,0,1
0.53139925,0.004850391,-0.19982328,0,1
-0.014132798,0.03938673,-0.33955163,0,1
-0.5544158,0.24532217,-0.5977296,0,1
-0.72932965,0.17850012,-0.724139,0,1
-0.80826855,-0.17007737,-0.8371079,0,1
-0.696313,-0.24339299,-0.77814966,0,1
-0.42230463,-0.12953952,-0.61833245,0,1
-0.16351543,0.03535268,-0.41839716,0,1
-0.09890011,0.034164406,-0.33887488,0,1
-0.28131503,-0.065139785,-0.32182544,0,1
-0.44956058,-0.0898514,-0.36272264,0,1
-0.60442954,-0.012729679,-0.44127035,0,1
-0.5276469,-0.07222369,-0.48903823,0,1
-0.4710872,-0.10319808,-0.51013184,0,1
-0.4049621,-0.05975154,-0.50545096,0,1
-0.3822846,-0.072814964,-0.48499972,0,1
-0.34270525,-0.07841303,-0.45476735,0,1
-0.38906062,-0.043009784,-0.4583428,0,1
-0.4267156,-0.032627136,-0.5069695,0,1
-0.5104295,-0.034493487,-0.6724431,0,1
-0.51765853,-0.023772283,-0.71323323,0,1
-0.44439313,-0.04369167,-0.5966384,0,1
-0.4064663,0.17227073,-0.48423678,0,1
-0.3330056,0.20189281,-0.43425655,0,1
-0.20111203,-0.008013744,-0.3113057,0,1
-0.11093256,-0.041205417,-0.30182257,0,1
0.1124645,-0.02660657,-0.32257056,0,1
0.080917865,-0.040051468,-0.2907701,0,1
-0.053743735,-0.041822445,-0.3015493,0,1
-0.17073998,-0.06340886,-0.29715896,0,1
-0.11616094,-0.001102461,-0.23126149,0,1
-0.02760642,0.15280913,-0.14040056,0,1
-0.26930797,-0.10252095,-0.25906244,0,1
-0.3139249,-0.2210827,-0.3203661,0,1
0.04678434,-0.038436897,-0.26680675,0,1
0.23800856,0.18770598,-0.2300525,0,1
0.5790357,0.2681112,-0.16083571,0,1
0.9709292,0.43304825,0.15005612,0,1
1.107723,0.8066025,0.30693048,0,1
1.4996773,1.6268061,0.14972559,0,1
1.8573292,1.861451,-0.04836283,0,1
1.5854105,1.1730956,0.079531014,0,1
0.4716307,1.0412177,-0.042963516,0,1
-0.16807339,1.3432082,-0.44910192,0,1
-1.4363701,1.7146337,-0.9122299,0,1
-1.7386694,1.5333717,-0.7310078,0,1
-1.1716712,0.83170307,-0.24621807,0,1
-0.12514323,0.046034798,-0.17341448,0,1
0.05649659,-0.044401176,-0.24604228,0,1
-0.057116203,0.32639307,-0.3296735,0,1
-0.3385257,0.51331896,-0.31444022,0,1
-0.773024,0.9099692,-0.44411635,0,1
-0.42673767,1.3632058,-0.56206393,0,1
-0.12011206,1.4047583,-0.5576289,0,1
0.10466321,0.99508184,-0.4564643,0,1
-0.004199818,0.59921163,-0.4164957,0,1
-0.49819523,-0.14960958,-0.4010686,0,1
-0.76731217,-0.7450304,-0.6431796,0,1
-1.0040526,-0.8484478,-0.82659674,0,1
-1.3513107,-0.77870464,-1.1345351,0,1
-1.4598265,-0.77193356,-1.0909437,0,1
-1.3783804,-1.6304415,-0.3683381,0,1
-0.87617975,-2.6102135,0.6896629,0,1
-0.7166674,-2.681329,0.9221488,0,1
-0.9345361,-2.5517948,0.9977349,0,1
-1.071222,-2.338864,1.0179838,0,1
-1.1960995,-2.124274,0.7344465,0,1
-1.6139112,-1.1393784,-0.0865792,0,1
-1.94333,-0.19852453,-0.64392704,0,1
-1.3455788,1.0528495,-1.9423054,0,1
-0.92547643,0.9556492,-2.1006927,0,1
-0.52917635,-0.388403,-1.9408157,0,1
-0.30603957,-1.1750622,-1.9914097,0,1
-0.33481842,-1.1160259,-2.0713995,0,1
-0.41654795,-0.44547662,-2.6148038,0,1
-0.1813879,0.08825385,-2.4823546,0,1
-0.052741647,0.5018271,-1.4220484,0,1
0.11128159,-0.119435325,-0.53299546,0,1
0.39429978,-0.07984352,-0.41583714,0,1
0.2459228,0.35644048,-0.60642505,0,1
0.05938238,0.34649938,-0.8590629,0,1
0.0780783,0.08063025,-0.96325326,0,1
0.038339615,-0.1663418,-0.63709205,0,1
-0.038975865,-0.2600727,-0.5620985,0,1
-0.038611278,-0.033252746,-0.6683672,0,1
-0.24191044,0.21113867,-0.8770977,0,1
-0.7817407,0.24422257,-1.0283482,0,1
-0.44179213,-0.08309271,-0.44655496,0,1
-0.034648575,-0.16215609,-0.102699734,0,1
0.45464864,-0.12853906,0.2150482,0,1
0.36149383,0.005057348,0.09621279,0,1
-0.2362404,0.23443694,-0.3695038,0,1
-0.58288956,0.008566818,-0.49406624,0,1
-0.543599,-0.1573086,-0.44793606,0,1
-0.41656867,-0.083799385,-0.43681476,0,1
-0.45977744,0.025405848,-0.48701802,0,1
-0.47911352,0.07454201,-0.42326418,0,1
-0.12992199,-0.013508811,-0.2557956,0,1
-0.010964111,-0.032562267,-0.2777465,0,1
-0.16326013,0.022254914,-0.53679794,0,1
-0.35722634,-0.02987007,-0.6468086,0,1
-0.24121538,-0.10972598,-0.65715927,0,1
0.33480453,-0.007340437,-0.30632648,0,1
0.5181035,0.041672714,-0.033935536,0,1
0.7454033,0.08012393,0.44871682,0,1
0.86335963,0.059980437,0.5954807,0,1
0.85352397,-0.032930322,0.59848493,0,1
0.4281434,-0.11546419,0.04018254,0,1
0.19185576,-0.08691406,-0.2692818,0,1
-0.0537889,-0.016894361,-0.46577972,0,1
-0.09462608,-0.06427194,-0.47375292,0,1
-0.17859977,-0.14227583,-0.5246215,0,1
-0.29355225,-0.080646545,-0.70137966,0,1
-0.39075696,-0.041132014,-0.7444966,0,1
-0.35747707,0.020855872,-0.47094527,0,1
-0.1977559,0.05134581,-0.17813674,0,1
0.15923649,0.000958455,0.18475705,0,1
0.13806628,-0.032485954,0.042620562,0,1
-0.007855453,-0.04857445,-0.14175254,0,1
-0.3299057,-0.093039535,-0.48810765,0,1
-0.44752625,-0.10497859,-0.59466743,0,1
-0.5934996,-0.044516604,-0.68877864,0,1
-0.6243201,0.08246798,-0.70088977,0,1
-0.6223844,0.10265917,-0.70912683,0,1
-0.636351,0.10903543,-0.72127664,0,1
-0.6125847,0.1063251,-0.7245776,0,1
-0.5825435,-0.006514596,-0.72574556,0,1
-0.30541766,-0.002471954,-0.50067073,0,1
-0.14885856,0.042921994,-0.3890125,0,1
-0.006255537,0.0606632,-0.3631796,0,1
-0.028165504,0.057214715,-0.41137123,0,1
-0.14046958,-0.031870864,-0.5215996,0,1
-0.22070354,-0.067848235,-0.64065355,0,1
-0.24533182,-0.04752449,-0.7310838,0,1
-0.12605232,0.012626614,-0.64853585,0,1
-0.030702084,0.056158993,-0.5027818,0,1
-0.048488647,0.08619687,-0.4474746,0,1
-0.17349169,0.049489945,-0.5066393,0,1
-0.18842846,0.010349246,-0.48763,0,1
-0.06362343,-0.018357292,-0.32842028,0,1
-0.006368913,-0.003283512,-0.2370256,0,1
-0.027138859,0.010503758,-0.20335273,0,1
-0.084836155,-0.008200655,-0.18304637,0,1
-0.11872841,-0.037193306,-0.15274261,0,1
-0.1867012,-0.058583267,-0.17782255,0,1
-0.18838319,-0.05549432,-0.22899596,0,1
-0.12082449,-0.044600498,-0.25160253,0,1
-0.13491696,-0.03000165,-0.18471201,0,1
-0.2000623,-0.032200824,-0.19699171,0,1
-0.19625822,0.014649377,-0.16924024,0,1
-0.08520574,0.034494393,-0.07572551,0,1
-0.012247503,-0.029012676,0.045695495,0,1
0.004840802,0.046006195,-0.09551035,0,1
0.045557253,0.007211673,-0.27257955,0,1
-0.06372896,-0.10649778,-0.5099629,0,1
-0.09396489,-0.1397009,-0.54205865,0,1
0.07156712,-0.045334827,-0.33292747,0,1
0.2322417,0.02287387,-0.30084175,0,1
0.15952674,0.033002835,-0.4015909,0,1
0.008248806,0.027639361,-0.5835794,0,1
-0.006974012,0.003169032,-0.6009327,0,1
-0.016570821,-0.052474044,-0.56246567,0,1
0.18514971,-0.003450403,-0.30772078,0,1
0.26430508,0.001360891,-0.18259843,0,1
0.27863443,-0.055146214,-0.1643496,0,1
0.23104513,-0.054599762,-0.18237884,0,1
0.035905056,-0.027484905,-0.2945202,0,1
-0.16623309,-0.00895693,-0.37973526,0,1
-0.19877511,-0.006275202,-0.4408159,0,1
-0.17972454,-0.004328759,-0.57833767,0,1
-0.18098518,0.012989012,-0.58317137,0,1
-0.17969048,0.022269215,-0.6045072,0,1
-0.1768474,0.028758014,-0.6343847,0,1
-0.17242068,0.051522218,-0.6312976,0,1
-0.18105882,0.07051941,-0.60885364,0,1
-0.16495796,0.048681222,-0.60292566,0,1
-0.17203845,0.009532897,-0.5841718,0,1
-0.16851482,-0.00065997,-0.51263756,0,1
-0.16246259,-0.022296928,-0.4460285,0,1
-0.05253111,-0.055305492,-0.27770177,0,1
-0.018679641,-0.0592928,-0.20734453,0,1
0.002670184,-0.022764212,-0.15019427,0,1
0.037381962,-0.024421696,-0.1339416,0,1
0.05305406,-0.03489685,-0.11629927,0,1
0.08895914,-0.059659958,-0.09375421,0,1
0.08505295,-0.06859683,-0.10737559,0,1
0.03336691,-0.064881325,-0.15502775,0,1
-0.013060272,0.029754626,-0.23520175,0,1
-0.03763105,0.024413094,-0.26418668,0,1
-0.088749975,-0.020301834,-0.3331387,0,1
-0.10914098,0.008835771,-0.39045894,0,1
-0.15090139,0.04882905,-0.45251274,0,1
-0.121582374,-0.015034697,-0.41691506,0,1
-0.045171037,-0.04618646,-0.31491143,0,1
0.009227932,-0.04411126,-0.21177271,0,1
0.026070632,-0.02636243,-0.2832258,0,1
0.063979715,-0.008529682,-0.45883754,0,1
0.01636,-0.025075937,-0.5840956,0,1
-0.003267288,-0.04250529,-0.65605927,0,1
0.03677249,0.007227867,-0.6727799,0,1
0.09084539,0.059840176,-0.56875026,0,1
0.111123,0.02687262,-0.3437124,0,1
-0.07389866,-0.0628748,-0.34788966,0,1
-0.19891396,-0.055089016,-0.38286814,0,1
-0.39674824,-0.013827351,-0.40578184,0,1
-0.48454884,0.01021096,-0.38488364,0,1
-0.5303917,0.09520909,-0.25922853,0,1
-0.3985473,0.07789896,-0.18315071,0,1
-0.3734392,0.06810377,-0.15625048,0,1
-0.30302608,0.10976504,-0.07105889,0,1
-0.19160527,0.022802342,-0.10418189,0,1
-0.074772425,-0.17592144,-0.30696177,0,1
-0.10455327,-0.11527063,-0.35882944,0,1
-0.066729486,-0.10330011,-0.39136577,0,1
0.109099835,-0.019594204,-0.35852635,0,1
0.18881273,0.045657143,-0.3230219,0,1
0.39769924,0.04547786,-0.29495963,0,1
0.5042465,-0.058549877,-0.2958938,0,1
0.50066006,-0.09482097,-0.28952488,0,1
0.48579276,-0.09936809,-0.19924466,0,1
0.4348488,-0.08068942,-0.16671403,0,1
0.21646175,-0.07144928,-0.24951367,0,1
0.10881171,-0.034660347,-0.29675978,0,1
0.040821314,1.62E-05,-0.33856994,0,1
-0.15665233,0.014605499,-0.40165776,0,1
-0.22802684,0.013369536,-0.37668228,0,1
-0.2603479,0.062224362,-0.35139683,0,1
-0.20984454,0.059782002,-0.40427253,0,1
-0.21849218,0.047366112,-0.45566058,0,1
-0.2849256,0.03710076,-0.510231,0,1
-0.29446614,0.015439002,-0.51834625,0,1
-0.23241064,-0.0343571,-0.6029834,0,1
-0.1835619,0.022942508,-0.6251834,0,1
-0.18566304,0.045695268,-0.6232635,0,1
-0.31695145,0.06021686,-0.68512917,0,1
-0.36649594,0.063425966,-0.74288327,0,1
-0.28757805,0.03483577,-0.72006035,0,1
-0.08621143,-0.05666735,-0.49953827,0,1
0.004361242,-0.0587845,-0.3994296,0,1
0.0793211,-0.021303184,-0.23814239,0,1
0.048206158,-0.02340222,-0.1973255,0,1
0.026104175,0.045509327,-0.21519193,0,1
0.010097362,0.04491804,-0.28770906,0,1
-0.017710239,-0.016432775,-0.3086438,0,1
0.025201663,-0.034235965,-0.3374513,0,1
0.068179846,-0.010435117,-0.34721404,0,1
0.13461907,-0.030204786,-0.38145316,0,1
0.16015099,-0.023825653,-0.27185884,0,1
0.17538622,-0.04147148,-0.18678734,0,1
0.24655181,-0.06456088,-0.0489241,0,1
0.2832011,-0.038263313,-0.042713773,0,1
0.30571076,-0.012578009,-0.14029114,0,1
0.21764092,-0.013826373,-0.2024051,0,1
0.17012718,-0.027642254,-0.22542751,0,1
0.066078454,-0.022170078,-0.33637545,0,1
-0.00082393,0.024590474,-0.36455736,0,1
-0.039582483,-0.028436674,-0.29857242,0,1
0.034830615,-0.03983212,-0.17381263,0,1
0.05122608,-0.006826404,-0.11644769,0,1
0.013892934,0.002753251,-0.143772,0,1
-0.02290573,0.021829592,-0.2289778,0,1
-0.14272815,0.037417386,-0.42318296,0,1
-0.2634515,-0.04749587,-0.6256342,0,1
-0.3253769,-0.04488281,-0.6783055,0,1
-0.32858452,0.020196876,-0.6182072,0,1
-0.2533316,0.016291585,-0.5328131,0,1
-0.16552916,-0.020825414,-0.5476108,0,1
-0.26934797,0.052485425,-0.7006422,0,1
-0.2873713,0.04867263,-0.7320113,0,1
-0.15130527,0.007923093,-0.63185203,0,1
-0.043859467,0.00717542,-0.51464146,0,1
0.13697019,0.024832712,-0.31347337,0,1
0.082475945,0.026989924,-0.2655294,0,1
0.03381063,0.024729716,-0.270923,0,1
0.048428833,-0.016866693,-0.25983527,0,1
0.05439605,-0.042922027,-0.24299353,0,1
0.03882455,-0.061396606,-0.23825912,0,1
0.04910183,-0.034750946,-0.22958478,0,1
0.040709525,-0.021382341,-0.26102844,0,1
0.020894319,-0.036200535,-0.29693064,0,1
0.032195896,-0.028429996,-0.27922386,0,1
0.11071164,0.004970539,-0.2937042,0,1
0.12548892,-0.021458635,-0.29273444,0,1
0.11397852,-0.0332079,-0.32731253,0,1
0.09139314,-0.038451206,-0.40250552,0,1
0.11573921,-0.030266775,-0.38801563,0,1
0.17790583,0.003463734,-0.3199198,0,1
0.13914779,0.011383045,-0.3000486,0,1
0.1210553,-0.015521058,-0.2736275,0,1
0.071970806,-0.03576279,-0.21330354,0,1
0.047255628,-0.03980828,-0.2280733,0,1
-0.003313243,-0.046943676,-0.29794565,0,1
-0.03641759,0.044356328,-0.29860008,0,1
-0.018841885,0.04440878,-0.2919756,0,1
0.041463636,-0.03384209,-0.22221972,0,1
0.05567649,-0.053936962,-0.2074573,0,1
0.007152692,-0.050178535,-0.23328987,0,1
-0.11373958,-0.00544264,-0.39938238,0,1
-0.14946775,0.03680989,-0.49559158,0,1
-0.2060238,0.026985133,-0.61338085,0,1
-0.21316649,-0.019640956,-0.6440548,0,1
-0.10350354,-0.050828006,-0.60179144,0,1
0.05033247,-0.022756597,-0.50719625,0,1
0.06468506,0.014491061,-0.45325452,0,1
-0.003710166,0.045192696,-0.39563257,0,1
-0.058147877,0.03683088,-0.39476338,0,1
-0.17541146,0.003775575,-0.37304285,0,1
-0.20191696,0.016734099,-0.37374836,0,1
-0.14381748,0.046206452,-0.3510577,0,1
-0.045086183,0.05214212,-0.36440387,0,1
-0.036452144,0.016038876,-0.3609012,0,1
-0.002083734,-0.066644676,-0.31939125,0,1
0.104194656,-0.048686985,-0.22415267,0,1
0.1324134,-0.025041584,-0.18950072,0,1
0.06309958,0.000942222,-0.21220446,0,1
0.012006678,0.002726544,-0.25055394,0,1
-0.029886253,-0.012850775,-0.30227765,0,1
0.00920938,0.00311659,-0.38604206,0,1
0.041475117,0.004654866,-0.40479457,0,1
0.076015756,-0.001390471,-0.33940148,0,1
0.06069894,-0.006409657,-0.297065,0,1
0.009603113,-0.06303025,-0.36081234,0,1
0.011955947,-0.023964899,-0.41912326,0,1
0.05642444,0.003640158,-0.39930013,0,1
0.14037593,0.014924037,-0.32022125,0,1
0.14693625,0.001479138,-0.31391913,0,1
0.10247171,-0.02281381,-0.39544898,0,1
0.016959757,-0.055923477,-0.43968454,0,1
-0.010750383,-0.044770256,-0.42900464,0,1
-0.038301572,-0.022278802,-0.38853073,0,1
-0.05440233,-0.017472284,-0.36128157,0,1
-0.041367553,0.006816849,-0.29526836,0,1
-0.030911557,-0.002893461,-0.26432905,0,1
-0.025657542,-0.00692941,-0.26696467,0,1
0.048184156,-0.0203209,-0.20885259,0,1
0.08656268,-0.026067737,-0.15543741,0,1
0.14661452,0.010798456,-0.023451362,0,1
0.16475573,-0.033490174,-0.030706724,0,1
0.13656887,-0.059178352,-0.12800719,0,1
0.08225671,-0.02852441,-0.30760816,0,1
0.053889565,-0.032306682,-0.32992148,0,1
0.06520776,-0.04526425,-0.30642945,0,1
0.05339004,-0.029059423,-0.33235258,0,1
-0.001836017,-0.02461149,-0.39268765,0,1
-0.13215584,-0.001811055,-0.5283283,0,1
-0.166446,0.004354446,-0.56351346,0,1
-0.17423958,0.01838967,-0.54708,0,1
-0.13953716,-0.004804635,-0.45521763,0,1
-0.13902625,-0.008059524,-0.42136356,0,1
-0.13486609,0.018946623,-0.41479793,0,1
-0.11544148,0.022912955,-0.42079622,0,1
-0.039607793,0.001249294,-0.38701653,0,1
0.037351035,-0.008292211,-0.32040903,0,1
0.062615596,-0.02451707,-0.30592898,0,1
0.055459812,-0.012835515,-0.3166477,0,1
0.031782344,-0.00395395,-0.37379742,0,1
-0.00088723,0.009288766,-0.45126995,0,1
-0.00628522,0.007762887,-0.45575312,0,1
0.019428298,-0.008424778,-0.43816888,0,1
0.1091667,0.012760147,-0.37814328,0,1
0.12103517,0.02926634,-0.36885908,0,1
0.016921371,-0.006893176,-0.4114399,0,1
-0.05188775,-0.013160728,-0.48514444,0,1
