Acc_x [m/s^2],Acc_y [m/s^2],Acc_z [m/s^2],AnyFall,NegOutcome
-0.0927364,-0.028292647,0.11509001,0,1
-0.07936679,-0.014411925,0.03198259,0,1
-0.10268436,-0.017796524,-0.029947301,0,1
-0.11624822,-0.023410805,-0.036827173,0,1
-0.14185984,0.006246564,-0.012190429,0,1
-0.13220498,0.017157556,0.019625025,0,1
-0.05787565,-0.07029439,0.015206835,0,1
-0.026316307,-0.05340101,-0.04842704,0,1
-0.029273603,-0.042964946,-0.05483171,0,1
-0.02129973,0.000933646,-0.011408521,0,1
-0.004870011,-0.010998729,-0.013145487,0,1
0.028928993,-0.021273615,-0.010305955,0,1
0.055656534,-0.08839703,-0.001105583,0,1
0.05785693,-0.08817291,0.025874209,0,1
0.019926602,-0.03509426,0.01827568,0,1
-0.009964369,-0.010917665,0.00043135,0,1
0.006525032,0.002656936,-0.010733234,0,1
0.028313084,-0.013607984,-0.032185573,0,1
0.010637715,-0.013503079,-0.0237265,0,1
0.04485011,-0.014406204,0.010298836,0,1
0.06291722,-0.011140821,0.026202826,0,1
0.00667807,-0.016839981,0.016608195,0,1
-0.03727062,-0.004798887,0.0244943,0,1
-0.03343241,0.000845912,0.028160365,0,1
-0.002331714,-0.008011817,0.014638568,0,1
0.003861956,-0.003027915,0.011036427,0,1
-0.005731956,-0.04421807,-0.015185129,0,1
-0.034596957,-0.01807404,-0.006871925,0,1
-0.015918551,-0.014968876,-0.014002359,0,1
0.04965429,-0.038146984,-0.054895353,0,1
0.04466029,-0.044850357,-0.05088515,0,1
0.025973903,-0.021190649,-0.03770844,0,1
0.003542127,-0.003414156,-0.011404311,0,1
0.013414289,-0.006223679,0.006008831,0,1
0.04892255,-0.032886505,0.01842023,0,1
0.065307826,-0.02961254,0.035356503,0,1
0.045762632,-0.010739323,0.031912494,0,1
0.055041544,-0.012342458,-0.030961657,0,1
0.04370385,-0.007269863,-0.034338973,0,1
0.010923725,0.000770565,-0.039271113,0,1
0.021599852,-0.019637115,-0.048237383,0,1
0.02404884,-0.054100048,-0.03653632,0,1
0.003353487,-0.045847893,0.020718394,0,1
0.009952145,-0.04823113,0.01722423,0,1
0.002595464,-0.012761119,-0.005860753,0,1
-0.007720653,-0.001941681,0.003323489,0,1
-0.007656872,-0.0032587,0.04961051,0,1
-0.029578682,-0.015293117,0.058136255,0,1
-0.026440933,-0.025304792,0.048946775,0,1
-0.010717309,-0.01184273,0.001158043,0,1
0.000713478,0.003707886,-0.001592504,0,1
-0.006208627,-0.000463486,-0.003096056,0,1
0.005900347,-0.046725277,-0.004621407,0,1
-0.000886268,-0.05284119,0.024286458,0,1
-0.015610205,-0.01462936,0.046615526,0,1
-0.016136246,-0.0090723,0.039304633,0,1
-0.003759306,-0.017161366,0.042266842,0,1
-0.0220589,-0.004743571,0.04682737,0,1
-0.04334602,-0.003754611,0.04859581,0,1
-0.040437806,-0.02653408,0.028944558,0,1
-0.029454324,-0.051818855,0.008367741,0,1
0.005143753,-0.03919888,0.004036754,0,1
0.023412688,-0.026885986,0.02930324,0,1
0.034509894,-0.03717327,0.015509839,0,1
0.034870718,-0.04439831,-0.011236876,0,1
0.02469693,-0.03938103,-0.016970342,0,1
-0.01636781,-0.041821484,0.00094393,0,1
-0.029970909,-0.040682796,0.0116563,0,1
-0.018470345,-0.040807728,-0.013233984,0,1
-0.01194191,-0.039599426,-0.029741023,0,1
-0.016638372,-0.01896954,-0.018879957,0,1
-0.020584403,-0.002765659,-0.023230134,0,1
-0.03015516,-0.005712512,-0.013113899,0,1
-0.028388979,-0.001373293,-0.015130436,0,1
-0.036744762,-0.01302624,-0.003052473,0,1
-0.03804457,-0.022303581,0.014867769,0,1
-0.017227402,-0.012613296,0.028504962,0,1
-0.03487787,0.005124097,0.039088026,0,1
-0.042132434,-0.007388114,0.023858072,0,1
-0.033451315,0.001588815,-0.0495608,0,1
-0.040256042,0.009811393,-0.07665397,0,1
-0.040194456,-0.000430119,-0.09684442,0,1
-0.045463093,-0.008695609,-0.03825601,0,1
-0.053607833,-0.004540445,0.000153584,0,1
-0.04058121,-0.040448193,0.019343264,0,1
-0.014968662,-0.05039025,0.005673102,0,1
-0.032602623,0.004783636,0.043229178,0,1
-0.01883179,0.004001634,0.13813259,0,1
-0.012434445,-0.012568457,0.16160607,0,1
-0.033790257,-0.03482722,0.12708473,0,1
-0.033550452,-0.03194522,0.102421306,0,1
-0.013156579,-0.019695278,0.049394425,0,1
-0.00932614,-0.01022721,-0.045009263,0,1
-0.032159697,-0.011858951,-0.07202812,0,1
-0.060017105,-0.038500797,-0.06282593,0,1
-0.05170515,-0.04798223,-0.050069075,0,1
-0.00718794,-0.047764797,-0.098596066,0,1
-0.027996443,-0.039732,-0.16114841,0,1
-0.0344762,-0.002511049,-0.19746728,0,1
-0.013866631,0.046021443,-0.18471552,0,1
0.005327278,0.03147887,-0.1200595,0,1
0.038150154,-0.047150616,0.022813553,0,1
0.041618623,-0.0484724,0.08303832,0,1
0.027084645,-0.038871758,0.081781164,0,1
0.028125629,-0.04967117,0.07764054,0,1
0.022583958,-0.053914066,0.08399379,0,1
-0.012337788,-0.01639461,0.0660078,0,1
-0.05199395,-0.008008954,0.038800955,0,1
-0.06596085,-0.03229046,0.0464832,0,1
-0.08507681,-0.07128621,0.012531978,0,1
-0.08600969,-0.06696034,-0.005588581,0,1
-0.07590515,-0.037484176,-0.01226134,0,1
-0.07148259,-0.004721643,0.001314703,0,1
-0.069704846,0.009731295,0.018590571,0,1
-0.056693375,0.01780701,0.025555816,0,1
-0.04595466,0.008751873,0.030495105,0,1
-0.014131882,-0.027553555,0.06640123,0,1
-0.004030842,-0.024069784,0.055063765,0,1
-0.023930397,-0.017965315,0.036250185,0,1
-0.052643828,-0.018465998,0.007473556,0,1
-0.0510481,-0.024374012,0.002698922,0,1
-0.05657423,-0.012444496,0.020188449,0,1
-0.038346097,-0.04067707,0.04110234,0,1
-0.027243728,-0.061442375,0.056714833,0,1
-0.036749654,-0.042971607,0.06807443,0,1
-0.056136742,-0.025327679,0.0771413,0,1
-0.051753588,-0.022555334,0.16898397,0,1
0.005214291,-0.088939644,0.23532116,0,1
0.01613057,-0.09863375,0.2425259,0,1
0.05253803,-0.07976911,0.26095527,0,1
0.059447493,-0.06928346,0.26500508,0,1
0.013320831,-0.006866448,0.06987006,0,1
-0.09224279,0.035524346,-0.21851748,0,1
-0.13469444,0.06691549,-0.2655638,0,1
-0.1490931,0.10326574,-0.28013298,0,1
-0.16213088,0.057076424,-0.29877436,0,1
-0.16568594,-0.03735737,-0.28261712,0,1
-0.1109801,-0.029851953,-0.289419,0,1
-0.051635884,0.0139837,-0.23708741,0,1
0.036988176,0.041127197,-0.10392618,0,1
0.06976109,0.005641931,-0.06390911,0,1
0.07872861,-0.06271077,0.012088779,0,1
0.09070286,-0.04074383,0.001245668,0,1
0.06427349,-0.033168796,-0.017402539,0,1
-0.026401801,-0.015235917,-0.111578144,0,1
-0.0725982,-0.01815035,-0.14837506,0,1
-0.120329574,-0.01170446,-0.1019414,0,1
-0.046923727,-0.020643245,-0.075734496,0,1
-0.02489056,-0.015553485,-0.06528145,0,1
-0.03929667,-0.028584484,0.002250764,0,1
-0.028635152,-0.050407413,0.0432096,0,1
0.02205559,-0.040657036,0.09539618,0,1
0.04141685,-0.04841422,0.1473128,0,1
0.046460383,-0.052638993,0.17288366,0,1
0.029523253,-0.046229348,0.16008012,0,1
0.020654215,-0.023079861,0.115109526,0,1
0.002437628,-0.006266587,0.0701667,0,1
0.009881762,-0.02910709,0.0670728,0,1
-0.000529852,-0.038723942,0.069984496,0,1
-0.065535046,-0.05029202,0.02988919,0,1
-0.111423634,-0.026316648,0.002451063,0,1
-0.13815634,0.02455616,-0.022042891,0,1
-0.10435551,-0.009464269,-0.01721985,0,1
-0.102125384,-0.024087913,-0.011852291,0,1
-0.101509266,-0.016226768,0.024245689,0,1
-0.086768195,-0.023756025,0.05267197,0,1
-0.047095526,-0.037664413,0.04424006,0,1
-0.06254431,-0.028091434,0.001522286,0,1
-0.04935872,-0.014184955,-0.005399331,0,1
-0.03852027,0.008502011,0.034953725,0,1
-0.029186407,-0.002437586,0.051342033,0,1
0.025150519,-0.05308151,0.07624664,0,1
0.016984537,-0.026248926,0.07332735,0,1
0.017136507,-0.016557686,0.07393176,0,1
0.019379286,-0.00694083,0.10923779,0,1
0.024229087,-0.01770686,0.106347084,0,1
0.020336939,-0.040649407,0.08047242,0,1
-0.007836956,-0.022252074,0.08823091,0,1
-0.038627744,-0.009718885,0.101614274,0,1
-0.039735097,-0.039966583,0.032257356,0,1
-0.03966561,-0.039451603,0.007544991,0,1
-0.015345988,-0.03152276,-0.021283254,0,1
-0.029794145,-0.025548944,-0.048466925,0,1
-0.030150136,-0.00709916,-0.059763957,0,1
-0.026514454,-0.006957065,-0.0850511,0,1
-0.015519401,-0.009710323,-0.0811065,0,1
-0.003679108,-0.013800631,-0.06985375,0,1
-0.009577783,-0.04361821,-0.024645895,0,1
-0.010415222,-0.05658913,0.021679647,0,1
-0.012202736,-0.009480473,0.04087709,0,1
-0.041056395,0.007534987,0.049517706,0,1
-0.040509365,-0.045969013,0.013865331,0,1
-0.026449272,-0.035148628,-0.013467821,0,1
-0.048837647,-0.00406361,-0.020219672,0,1
-0.02640127,0.0204792,-0.021013616,0,1
0.037127927,-0.010976795,-0.02501848,0,1
0.068283446,-0.029710775,-0.031280655,0,1
0.027820295,-0.05302716,-0.009334635,0,1
0.021691762,-0.09053517,0.020664684,0,1
0.06044049,-0.09175871,0.16641213,0,1
0.10697311,-0.070736855,0.2728088,0,1
0.19814806,-0.13435742,0.29913902,0,1
0.09355296,-0.015546784,0.13347515,0,1
0.02545534,0.044345863,0.035072133,0,1
-0.106844716,0.055478092,-0.07951658,0,1
-0.13336143,0.04555034,-0.090176605,0,1
-0.13311186,-0.025883686,-0.050080262,0,1
-0.07856634,-0.08360196,-0.005696911,0,1
-0.09618191,-0.106819175,-0.027888963,0,1
-0.040315934,0.005050643,-0.13387424,0,1
0.03771837,0.10338973,-0.16762803,0,1
0.053331587,0.12939738,-0.20118572,0,1
0.014975421,-0.045460742,-0.30924946,0,1
0.004170865,-0.10945994,-0.35156682,0,1
-0.066920795,-0.0861941,-0.4179218,0,1
-0.11635874,-0.05982406,-0.5241629,0,1
-0.10390135,0.03347867,-0.594095,0,1
-0.120881796,0.080971666,-0.47564885,0,1
-0.13807331,0.108493775,-0.38940954,0,1
-0.008223742,0.14103413,-0.16681296,0,1
0.13897099,0.062833786,-0.061865114,0,1
0.30905747,-0.12318612,0.041279174,0,1
0.26085407,-0.1558361,0.0666112,0,1
0.19752319,-0.116670616,0.020256255,0,1
0.03241474,-0.07585528,-0.16075258,0,1
0.032197,-0.028343227,-0.19860287,0,1
0.07969274,0.010474185,-0.18368152,0,1
0.3018089,-0.09976105,-0.25614625,0,1
0.3652805,-0.21296221,-0.32830024,0,1
0.22353402,-0.29878816,-0.49257115,0,1
0.029671371,-0.26712427,-0.5172673,0,1
-0.32991472,-0.21459113,-0.53228736,0,1
-0.68454295,-0.047774397,-0.5419762,0,1
-0.81647646,0.08596508,-0.576777,0,1
-0.65402657,0.07197185,-0.3883803,0,1
-0.39802358,-0.060636535,-0.005287174,0,1
0.026238576,-0.35634986,1.080912,0,1
0.2531632,-0.51611596,1.8488246,0,1
0.14784135,-0.45799428,1.8707111,0,1
-0.636583,-0.19601431,1.0613502,0,1
-1.1529876,-0.06606194,0.5463079,0,1
-1.7814082,-0.026610428,-0.2132098,0,1
-1.7383921,-0.80080146,-0.30385643,0,1
-1.4018898,-1.1753684,-0.021766922,0,1
-0.44322616,-1.0920879,0.42054823,0,1
-0.08816929,-0.60509396,0.4114433,0,1
0.44012538,0.05946829,0.07925955,0,1
0.8662663,0.39426056,0.57112014,0,1
0.8517894,0.58763045,0.65974885,0,1
0.5460498,0.52037627,0.11867555,0,1
0.65330565,0.31126693,-0.03600068,0,1
0.9341494,0.16360575,0.25084174,0,1
0.8221105,-0.12121387,0.41034925,0,1
0.7360079,-0.21011825,0.48509383,0,1
0.4803179,-0.08093258,0.335614,0,1
0.26591685,-0.081183426,0.11134451,0,1
-0.0176921,-0.19876578,-0.012120027,0,1
-0.040308323,-0.046540238,0.23086327,0,1
-0.07168347,-0.034861535,0.30476516,0,1
-0.023863021,-0.5263376,0.37243563,0,1
-0.07462154,-0.6817322,0.3923403,0,1
-0.34468618,-0.48291305,0.38127813,0,1
-0.47820196,-0.26024914,0.2175222,0,1
-0.3509788,-0.2881546,0.19047737,0,1
-0.09210444,-0.35426903,0.18309104,0,1
-0.16374667,-0.20528318,0.13540721,0,1
-0.5072125,0.08332062,-0.024891192,0,1
-0.20581424,-0.48805243,0.102715984,0,1
0.041357793,-0.7991305,0.3151273,0,1
0.27024007,-0.87267596,0.27951717,0,1
0.16339603,-0.7807151,0.08649845,0,1
-0.06486267,-0.19692233,-0.050107844,0,1
-0.24628556,0.70601374,-0.067029424,0,1
-0.41873112,1.1380416,-0.04725546,0,1
-0.66365284,1.1681291,0.09456645,0,1
-0.7206045,0.71415144,0.22481602,0,1
-0.72228193,-0.18470092,0.6042781,0,1
-0.583438,-0.5839329,0.6696865,0,1
-0.600713,-0.6163635,0.41444832,0,1
-0.4356402,-0.098662384,0.13606267,0,1
-0.19227326,0.4816514,0.1801216,0,1
-0.006784604,1.9117253,-0.002427982,0,1
0.27161118,2.5960152,-0.17668225,0,1
0.34224942,2.3296092,-0.10922016,0,1
0.28063723,0.9790956,0.14977619,0,1
0.22541417,0.26196772,0.2573413,0,1
-0.010055237,-0.53439903,0.33356816,0,1
-0.1273165,-0.632102,0.3111229,0,1
-0.074826874,-0.54551893,0.25556862,0,1
-0.06991335,-0.11191655,0.087012,0,1
-0.11253055,0.13698675,-0.024552183,0,1
-0.17742255,0.4776173,-0.2660492,0,1
-0.22636975,0.39122963,-0.40900832,0,1
-0.1888914,0.15468404,-0.35195205,0,1
-0.12662396,-0.36164194,-0.15566869,0,1
-0.073720776,-0.43363675,-0.11869711,0,1
0.024436517,-0.26142123,-0.09893223,0,1
-0.048259556,-0.08913136,-0.022663908,0,1
-0.06059863,-0.030376436,0.02575416,0,1
-0.033638798,0.12910178,0.12080417,0,1
-0.014397142,0.20819001,0.16178592,0,1
-0.023215396,0.13488965,0.20652485,0,1
-0.19299096,0.000130664,0.114990324,0,1
-0.30901077,-0.11742688,0.07774323,0,1
-0.43666217,-0.21158887,0.123678714,0,1
-0.37268004,-0.034750927,0.17856023,0,1
-0.051899694,0.3168345,0.30085298,0,1
0.20739797,0.23976143,0.30818775,0,1
0.26635876,0.06774716,0.31415084,0,1
0.16132495,-0.14974214,-0.006029774,0,1
0.08002872,-0.17738727,-0.13745387,0,1
0.1151031,-0.09723092,0.02827632,0,1
-0.08688813,0.09040546,-0.10193733,0,1
-0.15785232,0.020476334,-0.059182707,0,1
-0.1430893,-0.05784034,0.14737362,0,1
-0.10073265,0.009119054,0.18090755,0,1
0.019458639,0.090732604,0.18562856,0,1
0.08935055,0.09260659,0.32658476,0,1
0.0347669,0.08380704,0.32543355,0,1
0.030840088,-0.030969588,0.29334536,0,1
0.048001673,-0.06773279,0.27045536,0,1
-0.009602898,-0.045903195,0.124523126,0,1
-0.08514733,-0.06913279,0.1712181,0,1
-0.08365395,-0.033890706,0.21118157,0,1
0.02285511,0.000988986,0.21380812,0,1
0.09044013,-0.061695088,0.13768522,0,1
0.093918934,-0.2155104,0.05053238,0,1
0.0856086,-0.12287427,0.05473435,0,1
0.12915574,-0.07128525,0.07843236,0,1
0.0658423,0.041502014,0.098558195,0,1
0.013507777,0.1526232,0.08388312,0,1
-0.06652937,0.17714694,0.086199574,0,1
-0.08714171,-0.079899766,0.23091696,0,1
-0.020982485,-0.077854134,0.27562052,0,1
0.06931451,-0.043193802,0.14512539,0,1
0.025662906,-0.07656098,0.00748338,0,1
-0.08371259,-0.13866809,-0.16952856,0,1
-0.08480579,-0.23571017,-0.015237776,0,1
-0.07876036,-0.22621633,0.1379978,0,1
0.02255059,-0.002808553,0.15408239,0,1
0.052026235,0.051910415,0.06770487,0,1
0.009813588,0.000282297,0.080051705,0,1
0.03216354,0.037684474,0.2527671,0,1
0.10570139,0.05092339,0.27225974,0,1
0.20303285,0.05739216,0.24545754,0,1
0.18610664,0.05663876,0.25992,0,1
0.122184396,-0.004213295,0.31712025,0,1
0.009784736,-0.037962887,0.26089898,0,1
-0.041993342,-0.031341538,0.17416658,0,1
-0.094163075,-0.00483513,0.00245539,0,1
-0.08437798,0.005841253,-0.011635042,0,1
-0.033147447,-0.042799946,0.06266301,0,1
0.008118769,-0.105293274,0.15241869,0,1
0.043106623,-0.05056094,0.16448332,0,1
0.05121553,-0.035870537,0.16642389,0,1
0.012786642,-0.032013875,0.19754061,0,1
0.010857802,-0.024694411,0.2937896,0,1
0.01996813,-0.05010983,0.33239233,0,1
-0.001125429,-0.050627682,0.29330844,0,1
-0.005903343,-0.01086805,0.19875358,0,1
0.005305946,-0.01439188,0.18039678,0,1
0.034640078,-0.038260438,0.22418433,0,1
0.021454727,0.014278438,0.1989759,0,1
0.005282447,0.022187255,0.17998864,0,1
0.012564777,-0.011927584,0.19101399,0,1
0.016333655,-0.005801176,0.21523207,0,1
0.024615841,-0.00215528,0.20093599,0,1
0.011976018,-0.03159712,0.17215034,0,1
0.001059802,-0.0365877,0.16768737,0,1
-0.011606617,-0.027017578,0.16216981,0,1
-0.023514915,-0.03694056,0.16768429,0,1
-0.029796503,-0.018606165,0.18652727,0,1
0.011370411,-0.027776698,0.19858027,0,1
0.018477673,-0.050925236,0.20602019,0,1
0.004645711,-0.055068,0.2022506,0,1
0.0329824,-0.028719882,0.19709049,0,1
0.07100895,-0.028655991,0.14531034,0,1
0.05048617,-0.12909603,0.094070785,0,1
0.04071545,-0.1534872,0.062605485,0,1
0.025439264,-0.16254045,-0.039179433,0,1
-0.029799704,-0.14971927,-0.14128014,0,1
-0.12483747,-0.12756066,-0.20827727,0,1
-0.043509454,-0.15408231,0.03404947,0,1
-0.019385003,-0.20120716,0.29226112,0,1
0.024616744,-0.16595739,0.58424455,0,1
0.06975084,-0.03185076,0.5012459,0,1
0.103672266,0.022995977,0.21102196,0,1
0.012120666,-0.14734742,0.3212369,0,1
0.0071656,-0.11190409,0.5856334,0,1
0.012414493,0.13906112,1.1414131,0,1
-0.003253043,0.25197715,1.2453773,0,1
-0.08184542,0.45974937,0.8277202,0,1
-0.034309655,0.35906607,0.38020843,0,1
0.017208584,0.14884096,0.402439,0,1
0.08185012,-0.058389585,0.71946347,0,1
0.03459516,-0.032097727,0.7784,0,1
-0.014308646,0.34828866,0.64232504,0,1
0.03852046,0.27711403,0.7849365,0,1
-0.082668744,0.075348,0.7380358,0,1
-0.07745881,-0.027193928,0.8505937,0,1
0.016013607,0.08357251,0.9638659,0,1
0.13945554,0.31328887,1.1286497,0,1
0.1336228,0.086486034,1.3870702,0,1
0.1563192,0.21928619,1.6094671,0,1
0.015191719,1.6049953,1.532978,0,1
0.09319323,2.1785302,1.1541631,0,1
0.10127971,2.3352444,0.01309594,0,1
-0.5300767,2.1762676,-0.99519527,0,1
-0.5422333,1.7401029,-1.0162996,0,1
-0.026856244,1.0279304,-0.17446926,0,1
0.15832204,0.86580485,0.24926217,0,1
0.22165991,0.31561765,0.51796675,0,1
0.011230195,-0.16615103,0.23380943,0,1
-0.13759838,-0.29331973,0.101554416,0,1
-0.2848221,-0.36791137,0.009541224,0,1
-0.22317605,-0.457676,0.06027978,0,1
-0.02523227,-0.5823718,0.23637725,0,1
0.13549602,-0.60117054,0.2831163,0,1
0.21268566,-0.6032906,0.2205296,0,1
0.2872447,-0.7340279,-0.116521984,0,1
0.3208579,-0.83829707,-0.31936157,0,1
0.20084909,-1.1981623,-0.6629915,0,1
0.011900581,-1.2907593,-0.6953178,0,1
-0.033119112,-1.1570799,-0.59729826,0,1
-0.1592848,-0.8171045,-0.48091936,0,1
-0.28953946,-0.75149554,-0.51403403,0,1
-0.55706346,-0.6935626,-0.52135736,0,1
-0.6659575,-0.7617256,-0.29965734,0,1
-0.6725763,-0.7310868,-0.06735481,0,1
-0.32891488,-0.25689316,0.17581387,0,1
-0.10746604,-0.02731419,0.012540486,0,1
-0.005163036,-0.08651834,-0.35956508,0,1
-0.03549868,-0.6615497,-0.4966642,0,1
-0.024503872,-0.9284174,-0.5269818,0,1
0.05308243,-1.0979149,-0.5520616,0,1
0.10195659,-0.9478037,-0.5035007,0,1
0.10989417,-0.2872706,-0.18353221,0,1
0.15345357,0.15384676,0.02515706,0,1
0.14687489,0.11687661,-0.06191407,0,1
0.035291277,-0.30466375,-0.45888835,0,1
-0.053923953,-0.451296,-0.6611221,0,1
-0.19104278,-0.13290322,-0.8247683,0,1
-0.2523479,0.41812417,-0.6281013,0,1
-0.23991072,0.4781618,-0.48567718,0,1
-0.04850988,0.19223215,-0.09756895,0,1
0.05812136,-0.004829393,0.11648265,0,1
0.10679914,-0.19247246,0.29844928,0,1
0.0222614,-0.11922644,0.23769607,0,1
-0.024277644,-0.04514311,0.19434482,0,1
-0.08504535,0.006869331,0.12579684,0,1
-0.08262044,-0.00661372,0.111544885,0,1
0.027370172,-0.03860474,0.009019141,0,1
0.031516448,0.029419899,-0.037958328,0,1
-0.002689247,0.035983086,-0.031584878,0,1
0.006070608,-0.05157281,-0.034984797,0,1
-0.003682588,-0.064933784,-0.026538068,0,1
-0.033524483,-0.025300028,0.018341346,0,1
0.004736944,-0.013737676,0.0417362,0,1
0.010898782,-0.019391056,0.038567472,0,1
-0.012112986,0.0335579,0.037747163,0,1
-0.01112892,0.081687935,0.016407736,0,1
-0.08295678,0.047775272,-0.00622214,0,1
-0.15774146,-0.055050846,0.114272684,0,1
-0.124617115,-0.07266234,0.18928441,0,1
-0.05949308,-0.054828625,0.21945344,0,1
-0.062110387,-0.031061156,0.17562231,0,1
-0.06170947,-0.052074425,0.14563136,0,1
-0.022165403,-0.15390968,0.081769906,0,1
0.025281226,-0.1584778,0.039985385,0,1
0.10214564,-0.055126198,-0.023189707,0,1
0.09913853,0.023866653,-0.045396816,0,1
0.10376989,0.021153456,0.013165425,0,1
0.10717405,-0.055402756,0.04509819,0,1
0.0577405,-0.052704804,0.10640972,0,1
0.06098337,-0.1720047,0.17937171,0,1
0.13420442,-0.26704314,0.080098175,0,1
0.19472875,-0.19396117,-0.07873053,0,1
0.20197597,0.037098885,-0.0602352,0,1
0.23846042,0.07722093,0.053269655,0,1
0.37020826,-0.06692598,0.23884611,0,1
0.401524,-0.10738561,0.26079032,0,1
0.3496417,0.08419517,0.13689497,0,1
0.36661953,0.32208923,-0.10092374,0,1
0.5092522,0.31499293,-0.08977571,0,1
0.81883997,0.042282134,0.13688543,0,1
0.90040237,-0.07970902,0.22979768,0,1
0.9832005,-0.18675324,0.20532195,0,1
0.9583343,-0.023957243,-0.007376309,0,1
0.9658412,0.097798355,-0.15214027,0,1
1.0673621,0.16911124,-0.37369576,0,1
1.22648,0.14589404,-0.38974193,0,1
1.8093617,0.118409164,-0.25509545,0,1
2.2168806,0.07410337,-0.21719514,0,1
2.2376893,0.08617309,-0.10735444,0,1
2.1139045,0.656086,-0.035520565,0,1
2.2178004,0.9343339,-0.22902305,0,1
2.2485023,0.65838623,-0.74506825,0,1
-0.36122012,-0.44917127,-1.2198734,0,1
-2.298906,-0.7213414,-1.1387107,0,1
-3.9298396,-0.18123066,-0.38645175,0,1
-3.3508115,0.36275002,-0.06727652,0,1
-1.4622375,1.2619754,0.26870167,0,1
-0.9017459,0.3786822,0.000209757,0,1
-0.84953,-0.5261127,-0.19670624,0,1
-0.6967702,-1.5572283,-0.38408762,0,1
-0.7054694,-1.5128443,-0.41237313,0,1
-0.92274386,-0.5476304,-0.3916196,0,1
-0.65201885,0.34955308,-0.44314548,0,1
-0.3074602,0.2576227,-0.58883244,0,1
-0.00440342,-0.64086455,-0.8918675,0,1
-0.08171201,-1.2509367,-0.8537872,0,1
-0.008445721,-1.4698945,-0.48856378,0,1
0.052001562,-0.42992505,-0.3825155,0,1
0.04671873,-0.057603918,-0.6300955,0,1
-0.120422296,0.104383364,-0.9633709,0,1
-0.14478391,0.26802343,-0.8307868,0,1
0.031147681,0.9314014,0.11927004,0,1
-0.83340955,3.033379,0.4850961,0,1
-2.0601854,4.0643287,0.52988684,0,1
-3.2377503,2.9494786,2.2368104,0,1
-2.758325,1.0076059,2.58233,0,1
-2.5378747,-2.8480923,0.32852748,0,1
-2.5963469,-2.0338573,-0.9468579,0,1
-3.1567576,-0.5040771,-0.36012492,0,1
-3.4812908,-0.89012045,1.9841859,0,1
-3.3021278,-1.3878983,2.155419,0,1
-2.7416844,-0.8875752,0.6250079,0,1
-2.0467558,-0.35322776,-0.71670824,0,1
-1.8623395,-0.40541956,-1.0611514,0,1
-1.7767754,-0.3876278,-1.0828598,0,1
-1.9423403,-0.07212652,-0.8555536,0,1
-2.3745735,0.33149523,-0.4785097,0,1
-2.4807115,-0.17904684,-1.3337538,0,1
-2.1569927,-0.418218,-2.1133099,0,1
-0.76144373,-0.46507698,-4.0264244,0,1
0.272851,-0.40874353,-4.749335,0,1
2.0133252,-0.30110985,-4.495354,0,1
1.6189727,-0.23657456,-3.2227495,0,1
0.81010056,0.5214965,-2.9593782,0,1
0.34961888,1.6154491,-1.4705877,0,1
-0.4649141,0.97862643,0.41662124,0,1
-2.310228,0.6911404,1.5591842,0,1
-0.036236174,0.8201821,1.0535575,0,1
1.3846475,0.18033908,1.537982,0,1
2.4249141,-0.6836812,2.8539193,0,1
2.2721415,-0.69381297,3.0107272,0,1
1.0670179,-0.86259824,2.3358202,0,1
-0.3471171,-0.61472505,1.1013789,0,1
-0.7109305,-0.5559912,0.5472258,0,1
-0.54387456,-0.91157925,0.06290915,0,1
-0.12848091,-1.0011235,-0.13825537,0,1
0.6079302,-0.7930776,-0.16321936,0,1
0.26392516,-2.006765,1.3853997,0,1
0.24932772,-2.3483353,2.0663102,0,1
0.08919392,-3.4230425,1.3821536,0,1
-0.2643218,-3.8069048,1.0380192,0,1
0.07309148,-2.374158,1.4882822,0,1
-0.33479777,-1.2055492,0.98892343,0,1
-0.6345131,-0.8357182,0.7410902,0,1
-0.5958302,-0.3916625,1.3127333,0,1
-0.2795533,-0.123238415,1.4476752,0,1
-0.1352191,-0.1118125,0.8812837,0,1
-0.10739094,-0.22550292,0.6311552,0,1
-0.004085526,0.39428532,0.4434383,0,1
-0.14145625,0.029145192,-0.42078206,0,1
0.21192086,-0.61041266,-0.2634529,0,1
0.49520332,-0.089140005,-0.58024883,0,1
0.32010955,-0.1957207,0.007840293,0,1
0.3120538,0.065102555,-0.26914433,0,1
-0.035032213,0.32113925,-1.019792,0,1
0.04826145,0.19074816,-0.7220628,0,1
0.58769876,-0.005904296,-0.8923458,0,1
1.1661874,0.2610034,-1.2365763,0,1
1.1026155,0.037149288,-1.3706826,0,1
1.2269729,-0.3793585,-1.4553971,0,1
1.264184,-0.8303969,-1.0467358,0,1
-0.1874366,-1.1180507,0.2532076,0,1
-1.7231001,-0.06711471,1.267875,0,1
-1.621108,0.34615913,1.3252071,0,1
-1.254229,0.4577114,1.0926949,0,1
-1.6265949,0.7759688,1.0485104,0,1
-1.8432333,2.3274426,1.3507488,0,1
-1.2918683,3.106962,2.54076,0,1
-1.1781706,3.0520656,2.0747616,0,1
-0.33280775,4.9337573,1.7150905,0,1
-0.37204468,4.618303,1.4311633,0,1
-0.8025495,2.6591809,0.831435,0,1
-0.7638719,0.78824353,1.0985719,0,1
-0.8541734,-0.40725037,0.91787845,0,1
-0.24944043,-1.4619675,0.85001934,0,1
0.124323264,-1.4553213,0.70107853,0,1
0.19358301,-1.4418412,-0.001827667,0,1
0.39733455,-1.4352189,0.119809754,0,1
0.5212061,-1.0286342,-0.278927,0,1
0.5436079,0.07371222,-1.2187027,0,1
0.4760532,0.52166647,-0.990405,0,1
0.049941998,1.0554191,-0.4277821,0,1
-0.19071579,0.89961356,0.6348399,0,1
-0.043149706,0.93841285,0.4809452,0,1
0.51299906,0.52507883,-0.009185732,0,1
0.42490757,0.10620789,0.19133443,0,1
0.23419835,-0.22853942,0.62086666,0,1
-0.063427016,-0.21664523,0.42608067,0,1
-0.14604211,-0.06455227,0.3652024,0,1
0.008789069,-0.033495888,0.17044258,0,1
-0.18203968,-0.053836804,0.2341677,0,1
-0.68325347,0.0914116,0.10027648,0,1
-0.08844007,0.4641791,0.005392579,0,1
-0.057711475,0.59337527,0.14561969,0,1
-0.3307863,0.25926495,-0.2744216,0,1
-0.40846565,0.3467188,-0.32190588,0,1
0.07319427,0.5868541,0.4642594,0,1
0.04650982,0.44733915,0.2592538,0,1
-0.23778684,0.6206332,0.08559426,0,1
-0.13537708,0.36775115,0.09569087,0,1
-0.041805338,-0.28562167,0.033188775,0,1
-0.57044196,-0.7214127,0.20426485,0,1
-0.46939686,0.11041363,0.64937806,0,1
-0.2678574,0.038069803,0.6541059,0,1
-0.7785907,-0.111251794,0.5377638,0,1
-0.78345597,-0.06564329,0.34890637,0,1
0.55248535,-0.47459233,-0.662218,0,1
0.25261864,-0.398841,-0.30368978,0,1
-0.25929454,-0.13464928,0.15582417,0,1
0.08943801,-0.2296772,0.19261892,0,1
0.53526795,-0.5612183,-0.085353866,0,1
0.62204117,-0.79850113,-0.2934546,0,1
0.24441817,-0.31266597,-0.057318337,0,1
0.10248714,-0.09056855,0.015168131,0,1
-0.16406302,0.37993056,-0.043930486,0,1
-0.10347521,0.58702,-0.089328825,0,1
0.12973283,0.46677786,-0.04348175,0,1
0.08359126,0.16102792,-0.05502814,0,1
0.10835184,0.06898593,-0.16829287,0,1
0.28057966,-0.15277772,-0.33930913,0,1
0.34008986,-0.274108,-0.34712523,0,1
0.35953096,-0.33971983,-0.3028004,0,1
0.20770316,-0.14582732,-0.1689642,0,1
0.1478282,-0.001523979,-0.07805488,0,1
0.1328906,0.24624924,0.06173909,0,1
0.12206913,0.28495982,0.09973244,0,1
0.006125939,0.14485076,0.096011855,0,1
-0.11253358,-0.072816856,0.03971668,0,1
-0.13474828,-0.14024927,0.041984677,0,1
-0.068275556,-0.16213991,0.043429706,0,1
-0.01077927,-0.13157465,0.040897954,0,1
0.036072027,-0.035881996,0.0231689,0,1
0.03186184,0.029086115,-0.013382005,0,1
0.037396424,0.03402996,-0.025080893,0,1
0.05090096,0.033070568,-0.019636706,0,1
0.08383604,0.018128399,-0.001044024,0,1
0.121319056,-0.038544655,0.02102725,0,1
0.0811026,-0.061103825,0.019609947,0,1
0.053544812,-0.035700798,0.02885406,0,1
0.04596246,0.025792131,0.046939857,0,1
0.03988367,0.03186704,0.061581176,0,1
0.003115387,0.022477163,0.10046982,0,1
0.010211539,0.03484918,0.08065804,0,1
0.025705196,0.01591588,0.06269416,0,1
0.024244806,-0.036366463,0.035227403,0,1
0.026694141,-0.029732704,0.02457816,0,1
0.09741663,0.012976652,0.021969577,0,1
0.21546525,0.04767895,-0.04145783,0,1
0.27549478,0.053973194,-0.13048248,0,1
0.31351203,-0.17508417,-0.42873392,0,1
0.20789446,-0.4018489,-0.4883377,0,1
-0.16814336,-0.7723343,-0.24162897,0,1
-0.08334289,-0.5269175,-0.03613022,0,1
0.06815516,-0.19415094,0.11133875,0,1
0.030640427,0.17472465,0.43917477,0,1
-0.118444145,0.003011763,0.51118904,0,1
-0.45705616,-0.46637058,0.59385777,0,1
-0.71739435,-0.5569572,0.94932586,0,1
-0.79622746,-0.59839815,0.99727917,0,1
-0.7821938,-0.7168665,0.6932504,0,1
-0.57626593,-0.4673014,0.4389222,0,1
0.03886684,0.77245253,0.32273206,0,1
0.23231182,1.2530938,0.39322367,0,1
0.13971014,1.3390819,0.35730767,0,1
0.52405757,1.2812682,0.14386548,0,1
0.6556195,1.1754771,0.0632575,0,1
0.32857051,0.70303446,-0.009522613,0,1
0.64851886,0.19926934,0.09868602,0,1
0.72629243,-0.07605074,0.1270085,0,1
0.16932625,-0.60658747,-0.09049664,0,1
-0.1735119,-0.7268182,-0.2700964,0,1
-0.24421522,-0.7581455,-0.65671027,0,1
-0.6894542,-0.10989671,-0.23845758,0,1
-0.99225855,0.23425294,-0.057912458,0,1
-0.6698838,0.5254002,0.18611117,0,1
-0.5311966,0.48738012,0.37401098,0,1
-0.54034674,0.3677646,0.90088266,0,1
-0.07634993,0.5258992,1.5031414,0,1
0.18153407,0.42904112,1.3286818,0,1
0.2654051,0.021630345,0.43471828,0,1
0.06815931,-0.07187837,0.5653444,0,1
-0.022921171,0.124560416,0.36613154,0,1
-0.4763399,0.66375077,0.5873898,0,1
-0.9275919,0.7814019,1.0644006,0,1
-1.5731528,1.1275572,2.270214,0,1
-1.4952552,1.4899954,2.4106073,0,1
-1.2051805,1.2335962,2.2904775,0,1
-0.68698496,0.6884233,0.8071336,0,1
-0.058224216,1.1413747,-0.23806229,0,1
0.49652615,1.4431791,-1.0408301,0,1
0.2578567,0.9413348,-0.7737752,0,1
0.02261835,-0.89452565,-0.003764869,0,1
-0.5487099,-2.1392453,0.36683664,0,1
-0.4473902,-2.2405136,0.046664037,0,1
-0.19161983,-1.8724844,-0.30356452,0,1
0.14709523,-1.5153153,-0.40407047,0,1
0.51075953,-0.6049911,-0.39887628,0,1
0.18760872,0.3389072,-0.55667186,0,1
0.1518939,0.89647007,-1.2011417,0,1
0.2721659,2.2673092,-2.018424,0,1
0.3863839,3.199015,-1.2183495,0,1
0.5918059,3.9318995,-0.25203648,0,1
0.6377476,2.8772557,-0.927099,0,1
0.67796606,2.2895653,-0.7996077,0,1
0.30945733,1.1879568,-1.0638484,0,1
-0.066942416,0.57618135,-1.0839382,0,1
-0.2524904,-0.10424999,-0.1633,0,1
0.33464226,-0.23204708,0.27314964,0,1
0.5045804,-0.32728484,0.020924697,0,1
0.44821522,-0.35395434,-0.1644033,0,1
0.37171274,-0.27305418,-0.2590083,0,1
0.41231903,-0.16253951,-0.21414298,0,1
0.29069576,-0.3034077,-0.12303431,0,1
0.25187546,-0.5025235,0.049615957,0,1
0.19863164,-0.4911814,0.30445236,0,1
0.14958312,-0.18793678,0.27523133,0,1
0.107560895,-0.1442108,0.19443297,0,1
-0.042505957,-0.81833184,0.0863478,0,1
-0.12506133,-1.2132722,0.23808657,0,1
-0.27005336,-1.8373005,0.4705494,0,1
-0.30024603,-1.9674885,0.3676214,0,1
-0.30978224,-1.8922489,0.12869637,0,1
-0.34180835,-1.4844381,0.1531308,0,1
-0.303915,-1.4186822,0.14232965,0,1
-0.53331584,-1.0334655,0.12086093,0,1
-0.59209466,-0.6847344,0.061681665,0,1
-0.45991132,-0.78584784,-0.37988165,0,1
-0.44583893,-0.7875034,-0.33811548,0,1
-0.5255236,-0.93796843,-0.3377009,0,1
-0.94146717,-1.152609,0.17046139,0,1
-1.1023971,-0.8135596,0.8296745,0,1
-0.8336032,-0.112820484,1.4232017,0,1
-0.6751578,0.18312182,1.0291401,0,1
-0.77305377,0.055560216,0.8961061,0,1
-0.27832764,-0.3277044,0.4374596,0,1
0.06816293,-0.4079142,0.22435488,0,1
0.06647143,-0.4334622,0.108872466,0,1
0.08205863,-0.3268805,-0.3028761,0,1
0.18097691,-0.2519761,-0.5633338,0,1
0.24384607,-0.20045769,-0.8044069,0,1
0.24773243,-0.16183195,-0.6937503,0,1
0.114938594,-0.14172558,-0.24811971,0,1
0.24061325,-0.36698535,-0.04233573,0,1
0.24283133,-0.5437489,-0.004316402,0,1
0.23169377,-0.6703759,0.011175882,0,1
0.35709175,-0.39064223,-0.07844588,0,1
0.41434106,0.23944187,-0.33630982,0,1
0.17382427,-0.08484172,0.09962914,0,1
0.0161578,-0.53302574,0.39206102,0,1
-0.40186462,-0.46291447,0.5393122,0,1
-0.48081413,-0.005867899,0.56788224,0,1
-0.13856743,0.68366826,0.44448575,0,1
0.05674597,0.8467494,-0.08442578,0,1
0.045498133,0.76583296,-0.33668956,0,1
-0.058911033,-0.14318475,-0.6761643,0,1
-0.15790558,-0.64409363,-0.72745866,0,1
-0.20856388,-0.029649762,-0.17899905,0,1
-0.005107419,2.0980465,0.07189522,0,1
0.028411323,1.5465605,0.017806552,0,1
-0.14729078,-0.019983307,-0.086338885,0,1
-0.21374126,-0.1615353,-0.06293667,0,1
-0.15461487,-0.11431504,0.107059866,0,1
-0.001255808,0.16965389,-0.09582596,0,1
0.002877753,0.2219019,-0.20793048,0,1
-0.11344172,0.015488597,-0.23523287,0,1
-0.168168,-0.117981955,-0.21364658,0,1
-0.20737304,-0.16564658,-0.12073137,0,1
-0.13594566,-0.016653072,-0.06921345,0,1
-0.10232233,0.03334426,-0.097796075,0,1
-0.10931132,0.06263827,-0.20063502,0,1
-0.13884713,0.04769418,-0.25513992,0,1
-0.27790335,0.002458536,-0.27561453,0,1
-0.37302354,-0.022130996,-0.19553512,0,1
-0.3486478,-0.051292453,-0.16895644,0,1
-0.23837085,-0.051023517,-0.19515464,0,1
-0.19975764,-0.005646738,-0.24813548,0,1
-0.11631989,0.0603704,-0.4377603,0,1
0.023370877,0.05566592,-0.47512227,0,1
0.03970606,0.037954286,-0.40538296,0,1
-0.035692595,-0.03545763,-0.12403398,0,1
-0.07080846,-0.055971157,-0.028570976,0,1
-0.046565793,-0.10780623,-0.08162044,0,1
-0.07153836,-0.07370761,-0.16183077,0,1
-0.1308296,-0.03563788,-0.18622828,0,1
-0.18748899,0.058058716,-0.22615775,0,1
-0.18397018,0.08195303,-0.2139265,0,1
-0.22763209,0.081421845,-0.10802091,0,1
-0.22831084,0.021610253,-0.058219958,0,1
-0.22379372,-0.032545105,-0.052688923,0,1
-0.17721298,-0.08136846,-0.03376693,0,1
-0.1530424,-0.05497457,-0.03642991,0,1
-0.11654341,-0.072733894,-0.038264446,0,1
-0.07050428,-0.18408681,-0.03070084,0,1
-0.034721028,-0.15615085,-0.09666444,0,1
0.007398069,0.015461892,-0.27059618,0,1
-0.003605329,0.064517,-0.27653208,0,1
-0.044607483,-0.02345184,-0.26821622,0,1
-0.07328804,-0.0895491,-0.27294686,0,1
-0.087616965,-0.0674868,-0.26044166,0,1
-0.0765128,0.015503862,-0.18448532,0,1
-0.056202956,0.05007552,-0.13587198,0,1
-0.10053485,0.05794143,-0.12789924,0,1
-0.121624224,-0.023427028,-0.12484608,0,1
-0.119968094,-0.05478861,-0.1181719,0,1
-0.098549694,-0.07177355,-0.13667585,0,1
-0.07952037,-0.05812934,-0.18848047,0,1
-0.03142708,0.000336606,-0.3430024,0,1
-0.017846003,0.017712547,-0.40639377,0,1
0.00859781,-0.022312215,-0.4119841,0,1
-0.013112057,-0.08437735,-0.41306382,0,1
-0.005828414,-0.102571554,-0.41107497,0,1
0.02001129,-0.051663455,-0.402758,0,1
0.005706545,-0.007148792,-0.4082267,0,1
-0.020368477,-0.005865146,-0.40826276,0,1
-0.070333146,-0.029665997,-0.38994905,0,1
-0.06369452,-0.03534799,-0.39026245,0,1
-0.018413942,-0.030168584,-0.39370334,0,1
-0.038103964,-0.017896704,-0.41710275,0,1
-0.04982688,-0.00321584,-0.4173804,0,1
-0.045605473,-0.008411455,-0.38543123,0,1
-0.002328098,-0.043245364,-0.37941584,0,1
0.004100289,-0.049452826,-0.32914528,0,1
-0.03387061,-0.026896514,-0.2719586,0,1
-0.013597464,-0.013787305,-0.28137922,0,1
0.025599781,0.008192029,-0.29415134,0,1
0.04546615,-0.033076324,-0.2814081,0,1
0.077202596,-0.08983139,-0.24123287,0,1
0.13050075,-0.12331108,-0.21685876,0,1
0.14620604,-0.13919929,-0.19882907,0,1
0.121327415,-0.105559364,-0.02917107,0,1
0.149119,-0.03679561,0.06266,0,1
0.19289255,-0.024092667,0.06417259,0,1
0.12795836,-0.011785486,0.1816643,0,1
0.12577127,0.06936173,0.31163666,0,1
-0.040829074,0.112274244,0.49077588,0,1
-0.16086453,0.08760077,0.48900318,0,1
-0.25925332,0.1554118,0.519636,0,1
-0.17473677,-0.07510465,0.6622411,0,1
-0.08768337,-0.36708638,0.55597466,0,1
-0.00478942,-0.6247693,0.046441127,0,1
-0.006495773,-0.2543669,-0.113356985,0,1
0.04283351,0.55231667,-0.47831666,0,1
-0.027530402,0.16891754,-1.0788682,0,1
-0.25353903,-0.078532375,-1.2257737,0,1
-0.8610282,-0.19473283,-1.0593842,0,1
-1.0123024,-0.23525254,-0.9664642,0,1
-1.27122,0.32774538,-0.63349813,0,1
-1.2511992,0.7799111,-0.35516933,0,1
-0.8945743,0.6055546,-0.1857011,0,1
0.09193527,-0.025082542,0.4181336,0,1
0.59481686,-0.23943418,0.63599026,0,1
1.2613714,-0.71740156,0.062215526,0,1
0.073619366,-1.0880502,-1.5437201,0,1
-0.7696797,-0.53856784,-1.8665775,0,1
-1.266942,0.30209902,-1.7544067,0,1
-0.9855175,0.32488903,-1.3753055,0,1
0.5738837,0.65953827,-0.49422902,0,1
1.896794,0.62502676,-0.25741592,0,1
2.00756,0.49750522,-0.42204544,0,1
0.9949869,-0.008716615,-0.3777581,0,1
0.29804233,-0.14975362,-0.22669986,0,1
-0.63708436,-0.37579837,-0.5775023,0,1
-0.7567207,-0.47502628,-0.75678045,0,1
-0.44959137,-0.24974929,-0.5939306,0,1
0.43648714,-0.094567396,-0.7410301,0,1
0.6569859,-0.11583626,-0.9876108,0,1
0.43128142,-0.1245395,-1.0036823,0,1
-0.10651223,-0.5774794,-0.14942728,0,1
-0.42502016,-0.5235005,0.022480465,0,1
-1.302852,0.41754347,0.104967274,0,1
-1.4795783,0.79391783,0.4929903,0,1
-0.9478421,0.7924598,1.3745946,0,1
-0.24704605,-0.08385834,1.3776233,0,1
0.04748272,-0.75769514,1.3370858,0,1
1.1360517,-1.9155251,1.3013341,0,1
1.4814117,-1.9500023,0.8532121,0,1
0.84295034,-0.116282515,-0.39237672,0,1
0.001095505,1.091777,-0.2327641,0,1
-0.40829602,0.47313604,0.32806575,0,1
-0.9465956,-0.6256113,0.48844132,0,1
-0.60036397,-1.1582328,0.08464162,0,1
0.816768,-1.6345266,-0.69766444,0,1
0.24712038,-1.0609791,-0.8076614,0,1
-0.27785704,-1.0504504,-0.25982818,0,1
-0.36055505,-0.6146517,0.33108905,0,1
-0.27823693,-0.6945916,0.031455584,0,1
-0.016424524,-1.2241699,-0.008709449,0,1
0.5470897,0.007286098,0.15078868,0,1
0.56824434,0.008429524,-0.095387824,0,1
-0.12836874,-0.61072356,-0.1896147,0,1
-0.35244018,-0.6970025,0.072394416,0,1
-0.16471364,-0.24413875,-0.03522635,0,1
0.15288505,0.054983128,-0.18412262,1,0
0.14652081,0.099421486,-0.24686618,1,0
0.30090424,-0.5976373,-0.5216668,1,0
0.490313,-0.87453854,-0.25993934,1,0
0.83124137,-0.5474902,0.12548709,1,0
1.0691079,-0.64490044,-0.6112891,1,0
0.8681991,-0.22198497,-0.695186,1,0
-0.43415102,0.04874225,-0.4029238,1,0
-0.6583694,0.11206723,0.006669043,1,0
-0.6849717,0.85719216,0.08433276,1,0
-1.2121667,1.0584604,0.03821391,1,0
-1.0912789,1.6909821,0.25103036,1,0
-0.33708227,3.1850867,-0.447294,1,0
-0.5180459,3.2657142,-0.6705908,1,0
-0.17367598,3.2365556,-0.5743703,1,0
-0.1585471,2.136877,-1.3100988,1,0
-0.64723957,1.3237839,-0.8900656,1,0
-0.8106062,0.4953413,-0.4202683,1,0
-0.9647424,0.051171202,-0.80133355,1,0
-0.83523154,0.19825636,-1.222732,1,0
-0.48760074,0.21520495,-2.2081892,1,0
-0.88931036,0.09250705,-2.6104944,1,0
-1.040257,-0.540357,-2.3276587,1,0
-0.9227704,-1.6342225,-1.8435146,1,0
-0.7599678,-3.9777877,-1.5037585,1,0
0.38377,-4.5068297,-1.0417832,1,0
0.6928435,-4.739725,-0.9121831,1,0
0.44913423,-5.737709,-0.90087616,1,0
0.5282151,-5.7169166,-0.47601637,1,0
-0.03068056,-4.395365,0.46441948,1,0
-0.78209734,-0.35352695,1.3572565,1,0
-0.93193424,2.6295295,1.7352625,1,0
-0.54956996,7.954989,4.484401,1,0
-1.3898096,11.09085,7.2210455,1,0
-3.2360163,15.238367,9.936105,1,0
-0.7400923,6.735675,8.588917,1,0
0.33359787,2.2295246,6.967427,1,0
0.6940973,-3.118595,2.923715,1,0
0.6133262,-5.266949,2.3701098,1,0
1.974205,-8.784787,2.777628,1,0
0.948803,-7.737888,1.1620941,1,0
-0.15834501,-6.0923448,0.31304318,1,0
-1.1512992,-1.9930545,0.9591399,1,0
-0.9782703,0.2992918,1.4654468,1,0
-1.4507427,4.0838566,2.2414215,1,0
-1.9737334,6.7376504,2.5809076,1,0
-1.0837997,6.5249276,2.5090485,1,0
1.7833409,2.014542,1.2338405,1,0
2.1702826,-0.42931837,0.7196618,1,0
0.6872719,-2.6489367,0.9823775,1,0
0.031736553,-2.8638556,-0.9102282,1,0
0.21157584,-2.7747645,-2.2569923,1,0
0.16525155,-1.4707274,-2.7158256,1,0
-0.14404097,-0.25768209,-1.7719768,1,0
-0.39661986,1.1773806,-0.7637412,1,0
-0.26534158,1.6393596,-1.2630601,1,0
-0.09305248,1.7581254,-1.1999208,1,0
0.26503694,1.248191,-0.07476936,1,0
0.33581108,0.63473237,0.52829427,1,0
0.14867644,-0.3689889,1.0792189,1,0
-0.038188837,-0.97428703,0.8261038,1,0
-0.08747873,-1.1069003,0.4519428,1,0
-0.41898113,-0.7197962,0.5567179,1,0
-0.54405415,-0.39539045,1.0029575,1,0
-0.44212773,-0.005196427,1.2748775,1,0
-0.23220392,0.22975555,1.0113674,1,0
-0.2020717,0.35350147,0.937855,1,0
-0.3706423,0.45080292,0.63754225,1,0
-0.44858104,0.4274722,0.425224,1,0
-0.5241711,0.12916091,0.17195855,1,0
-0.44610664,-0.32125953,0.009354937,1,0
-0.39531675,-0.3702441,-0.09918061,1,0
-0.24727958,-0.28393847,-0.11993223,1,0
-0.16158469,-0.24485974,-0.049524263,1,0
-0.10530135,-0.026627546,-0.005592468,1,0
-0.064927,0.28046897,0.1198757,1,0
0.013130144,0.31366068,0.2090318,1,0
-0.0340884,0.23634058,0.30640492,1,0
-0.26094574,0.24179465,0.33521542,1,0
-0.49122393,0.24330813,0.29524916,1,0
-0.17662509,-0.17484377,0.28420255,1,0
-0.031231113,-0.3574438,0.37969407,1,0
-0.016079336,-0.22207925,0.46313024,1,0
-0.089529164,-0.063005395,0.5101119,1,0
-0.15634081,-0.14876552,0.51120293,1,0
-0.26152703,-0.120184876,0.37164506,1,0
-0.3994105,0.027932214,0.41447452,1,0
-0.47470784,0.17675214,0.35567364,1,0
-0.34075654,0.06255916,0.21451803,1,0
-0.027309801,-0.25242904,0.07372306,1,0
-0.12973118,-0.1096382,0.2930536,1,0
-0.19954707,-0.08174988,0.38735205,1,0
-0.21050562,-0.11168383,0.28277418,1,0
-0.2333481,-0.07825658,0.3346908,1,0
-0.069365546,-0.13653466,0.36454377,1,0
0.5045783,-0.39734748,0.20973639,1,0
0.793232,-0.5192776,0.2599038,1,0
1.2861819,-0.54868793,0.22082995,0,1
1.42756,-0.508214,0.111509085,0,1
1.1591495,-0.15291306,0.23306218,0,1
0.70039135,0.51235497,0.24806713,0,1
0.58224154,0.82807463,0.26588848,0,1
0.743025,0.9735996,0.36682874,0,1
0.89817476,0.78665465,0.35040125,0,1
0.79346126,0.6077987,0.3622526,0,1
0.4024068,0.4649936,0.51659393,0,1
0.19075593,0.25397214,0.55303615,0,1
-0.20028582,-0.108093195,0.7333971,0,1
-0.19916937,-0.28717893,0.8060138,0,1
0.05024136,-0.5726776,0.6141133,0,1
0.15081942,-0.5257158,0.36800644,0,1
0.081247464,-0.41160777,0.3243206,0,1
-0.19281174,-0.10058878,0.29035214,0,1
-0.36288518,0.07260516,0.24928696,0,1
-0.6551548,0.3188906,0.19947709,0,1
-0.6835109,0.27533633,0.27668217,0,1
-0.58873117,0.14905266,0.27409002,0,1
-0.33677235,-0.08544921,0.1962562,0,1
-0.23552719,-0.1444645,0.18023862,0,1
-0.16762555,-0.22876264,0.13021746,0,1
-0.26684085,-0.1424818,0.1868267,0,1
-0.29595464,-0.061417565,0.23608679,0,1
-0.28726682,0.048309363,0.27554122,0,1
-0.25227162,0.06386665,0.26226717,0,1
-0.17820507,0.031765953,0.12672669,0,1
-0.19393905,0.03201962,0.034432817,0,1
-0.25112864,0.06930447,0.020546073,0,1
-0.70795,0.21875863,0.22576731,0,1
-0.97267973,0.22256473,0.16335973,0,1
-1.632013,0.27600384,-0.047453087,0,1
-2.2305424,0.62985426,0.20818175,0,1
-2.3056183,0.67739594,0.57423323,0,1
-2.0402672,0.14394483,0.88645744,0,1
-1.7337571,-0.30145738,0.7608632,0,1
-0.87966317,-1.0671396,0.71513855,0,1
-0.5311232,-1.2827044,0.9180937,0,1
-0.47805017,-1.2957602,0.95049334,0,1
-0.648278,-1.218833,1.0347275,0,1
-0.64197814,-1.052887,1.002322,0,1
-0.16507044,-0.5941267,0.49728104,0,1
0.56314564,-0.26884934,0.34811953,0,1
0.83840895,-0.13146774,0.6705736,0,1
1.5110409,-0.036490306,0.97790223,0,1
1.5313406,0.08638966,0.7717375,0,1
1.3374348,0.28346834,0.23968449,0,1
1.0857857,0.41328436,-0.08154991,0,1
0.98918563,0.39233118,-0.017499132,0,1
0.8443754,0.21655756,0.17543373,0,1
0.6475224,0.13847071,0.30603763,0,1
0.5934185,0.028782893,0.30819497,0,1
0.54033566,0.13931942,-0.24807402,0,1
0.38649184,0.32704735,-0.4088088,0,1
0.3546906,0.5137797,-0.21892996,0,1
0.48185217,0.5241242,0.007694359,0,1
1.234622,0.582946,0.89457893,0,1
1.3737701,0.23052056,2.2852511,0,1
0.97130424,0.06857235,2.4282963,0,1
0.6844605,-0.047436487,1.9086229,0,1
0.62397414,0.099437945,1.7233537,0,1
0.121601105,0.3259099,2.1583734,0,1
-0.80047405,0.08062686,3.1490874,0,1
-1.2094607,0.064499244,2.993208,0,1
-1.623734,0.9761041,1.5352105,0,1
-1.8725768,1.4970152,0.7787951,0,1
-1.996143,0.56805044,0.1481172,0,1
-1.859164,0.036461856,0.4070023,0,1
-1.7979115,0.31221005,-0.35042548,0,1
-0.84762526,0.8118667,-1.2405348,0,1
-0.32628208,0.27804556,-0.9916403,0,1
0.3240028,-0.9992591,-0.28404367,0,1
0.1722289,-1.1768132,0.27217963,0,1
-0.1038059,-0.70005614,-0.07640509,0,1
-0.45819265,0.2041377,-1.0959611,0,1
-0.34059793,0.5817136,-1.0351123,0,1
0.030945659,1.4991399,-0.4560069,0,1
0.4852878,1.9595693,0.5466182,0,1
0.52856064,1.6568407,0.91784847,0,1
-0.4508572,0.5012008,0.71317583,0,1
-0.72253287,0.21069533,0.33972615,0,1
0.13984583,1.0431129,-0.26670972,0,1
0.82409275,1.6274693,-0.22128956,0,1
0.97881514,1.7796261,-0.17946453,0,1
0.75831544,1.347825,-0.74202806,0,1
0.43904752,1.1920166,-0.943948,0,1
0.2495594,0.9215784,-0.8007299,0,1
1.1074426,0.37163445,-0.675922,0,1
1.4331381,0.3723602,-0.7556451,0,1
1.3074788,0.064423494,-0.77930707,0,1
0.93122226,-0.3300706,-0.78929347,0,1
0.4033006,-0.5366441,-0.62329465,0,1
0.23246089,-0.285286,-0.28144297,0,1
0.30050558,-0.16469099,-0.08933582,0,1
0.58080626,-0.052065823,0.21473694,0,1
0.6589882,-0.32538983,0.42139384,0,1
0.48886958,-1.331069,0.47282702,0,1
0.11218098,-1.8642361,0.33122298,0,1
0.040389925,-1.847213,0.2655642,0,1
-0.06796913,-1.601929,0.17308974,0,1
-0.119210385,-1.3222896,0.15031712,0,1
-0.23627086,-0.85476124,0.09903702,0,1
0.16460311,-0.8591558,0.14262764,0,1
0.39570776,-0.88666356,0.20228733,0,1
0.40453246,-0.5849486,-0.060776006,0,1
0.26373798,-0.39624986,-0.18971892,0,1
0.23311955,-0.036059402,-0.19712894,0,1
0.8599875,0.035095286,0.4723997,0,1
1.1929147,-0.11844049,1.2041943,0,1
1.353259,-0.53670955,2.3306582,0,1
1.3196673,-0.8902157,2.4482677,0,1
0.92393947,-1.1682155,2.541453,0,1
0.181749,-0.9063118,2.6000488,0,1
-0.013733715,-0.8587644,2.8491373,0,1
-0.30894053,-1.2415328,4.6026444,0,1
-0.7617261,-1.2579608,5.1000924,0,1
-1.4991031,-0.2036521,2.8380525,0,1
-0.9490584,0.18006893,-0.3515162,0,1
-0.678241,-0.078001216,-1.4722502,0,1
-1.2583077,0.58935803,-2.8619313,0,1
-1.6963105,1.120362,-3.2476861,0,1
-1.800593,1.0615079,-2.9262185,0,1
-1.8212508,0.42259595,-0.5076577,0,1
-1.8346702,0.26480776,0.4932028,0,1
-1.6638569,0.10124215,0.78146863,0,1
-1.561852,-0.105910294,0.3553651,0,1
-1.6122859,-0.9118178,-0.703699,0,1
-1.8853436,-1.3265995,-1.4033893,0,1
-1.8788453,-1.1629575,-1.6015936,0,1
-1.7815477,-0.56987023,-1.4858097,0,1
-1.6386656,-0.4489796,-1.1341248,0,1
-1.5383633,-0.6772567,-0.10031437,0,1
-1.7299482,-1.1337692,0.61284024,0,1
-1.6184189,-1.0455905,0.6872246,0,1
-0.65046793,-0.39618212,0.17521766,0,1
-0.17632823,0.07259845,-0.12580317,0,1
0.055495933,0.87546927,-0.571648,0,1
-0.01626663,1.6678401,-0.8437443,0,1
0.045216553,1.5617296,-0.8859614,0,1
0.049619146,-0.26290047,-0.80223465,0,1
0.052039225,-0.97836703,-0.47769317,0,1
-0.101348035,-0.5672903,0.4847793,0,1
-0.042004533,0.22492424,0.99655426,0,1
0.07718585,0.39588758,1.1736233,0,1
0.09279017,0.3416254,1.2168372,0,1
0.014931247,0.17121996,1.052736,0,1
-0.13668945,-0.16731352,0.68271124,0,1
-0.16442287,-0.3048286,0.50458723,0,1
-0.10018743,-0.23948762,0.4919464,0,1
0.009518314,0.020481165,0.4572732,0,1
0.050875515,0.06454283,0.40308645,0,1
0.055398323,0.044933356,0.26414847,0,1
-0.02873092,0.03573418,0.015932087,0,1
-0.017056381,0.03175449,-0.048062842,0,1
-0.019973945,-0.028427124,0.030377224,0,1
-0.02440054,-0.047735218,0.041331686,0,1
-0.013593639,-0.086230285,-0.020603552,0,1
-0.00668125,-0.043757446,-0.026010793,0,1
0.001017912,0.014641763,-0.004574357,0,1
-0.059690688,0.08554078,0.00949068,0,1
-0.13479847,0.09819318,0.020696415,0,1
-0.25384003,0.101693176,0.10262947,0,1
-0.28500044,0.013969447,0.23524073,0,1
-0.3192653,-0.02334783,0.26449206,0,1
-0.42249936,-0.089127526,0.2631957,0,1
-0.3964965,-0.17284106,0.3014485,0,1
-0.31016693,-0.2219591,0.4375968,0,1
-0.29875734,-0.09360881,0.45270306,0,1
-0.28678858,-0.06829163,0.41453388,0,1
-0.21732089,-0.1103563,0.42289686,0,1
-0.21749361,-0.113748506,0.5214138,0,1
-0.14043123,-0.16384691,0.681929,0,1
0.08364955,-0.25511926,0.66755986,0,1
0.18237957,-0.21877283,0.6914002,0,1
0.41027015,-0.1148204,0.7889279,0,1
0.49494857,-0.08138742,0.83328825,0,1
0.5209905,-0.10183705,1.0167336,0,1
0.5408382,-0.003145104,0.8996122,0,1
0.5436815,0.04082975,0.69681543,0,1
0.5896381,0.12705526,0.6095618,0,1
0.75527173,0.21873963,0.69356245,0,1
1.2191017,0.16822255,0.72700065,0,1
1.4935511,-0.022457976,0.6888613,0,1
1.5432191,0.010070909,0.7171725,0,1
1.8991545,0.14189069,0.9923353,0,1
2.2401154,0.31377432,1.1456453,0,1
3.1613894,0.9049447,1.34346,0,1
3.4133258,1.0577662,1.045376,0,1
2.8678746,0.7083294,0.45688516,0,1
1.0828352,-0.5925934,-0.9353227,0,1
0.21966334,-1.2185147,-1.319135,0,1
-0.9510435,-1.5123343,-1.4367967,0,1
-1.7438194,-1.1692345,-1.2101008,0,1
-2.0633109,-0.96896005,-0.8747017,0,1
-2.0528069,-0.06390765,0.074053474,0,1
-1.6031363,0.7259732,0.37234077,0,1
0.2186402,3.2867408,0.18758482,0,1
2.0107589,5.5301805,-0.42283362,0,1
1.9540931,5.656365,-0.4119428,0,1
0.1449973,3.0203443,0.29845214,0,1
-0.45981267,0.40959942,0.63894135,0,1
-0.24762234,-4.9269896,1.2142843,0,1
0.13638107,-7.715397,1.750346,0,1
-0.12719044,-8.377234,1.6992495,0,1
-2.1741207,-7.386401,-0.30182365,0,1
-3.6488435,-4.335069,-1.4337126,0,1
-5.166135,6.00477,-1.5836346,0,1
-0.80003214,7.2855186,-1.332417,0,1
1.3985617,6.2778397,-0.7382459,0,1
1.9119948,4.339789,0.77530247,0,1
1.7327969,2.8194184,1.1523373,0,1
0.34261268,-0.55932903,0.5763946,0,1
-1.9801284,-4.448765,0.18364133,0,1
-2.9923842,-6.1891575,0.036318667,0,1
-5.153598,-8.387813,-1.1092628,0,1
-5.9023647,-8.456262,-1.530987,0,1
-5.5746784,-1.4578556,-1.4457054,0,1
-1.2605304,12.7169485,-1.2322266,0,1
0.6883803,13.659751,-1.5387096,0,1
-1.1512353,4.218332,0.9469069,0,1
-1.351502,1.2093557,2.1031885,0,1
0.38422394,-0.88805073,3.689706,0,1
1.0933746,-4.530922,2.3299801,0,1
1.5004019,-8.610704,1.3081537,0,1
0.31261212,-13.1695175,0.42246076,0,1
-1.4291737,-10.486756,-0.7489543,0,1
-4.6271396,-1.915874,-5.077606,0,1
-4.9990387,10.966563,-6.378075,0,1
-3.2492635,12.075737,-3.932934,0,1
-2.5879083,7.049654,0.336749,0,1
-2.7855985,5.4333005,1.0472621,0,1
-2.225861,2.4659731,1.0800974,0,1
-1.6010709,0.46865165,-1.2982998,0,1
-1.1626186,-0.8606361,-1.8397487,0,1
0.2760859,-5.7396026,-1.7999464,0,1
1.0928047,-8.240687,-1.453661,0,1
0.5357871,-10.41053,-0.16429184,0,1
-1.733787,-5.161149,-2.0670047,0,1
-2.3899922,1.8110034,-3.4316561,0,1
-1.4065887,15.25834,-0.16964488,0,1
-2.0181022,13.475629,0.6493118,0,1
-3.826575,6.5764503,-1.2494096,0,1
-3.5605469,1.0975811,1.0130299,0,1
-3.2011967,-1.5721647,1.7471942,0,1
-1.5742874,-5.669694,1.1727967,0,1
-0.5322464,-8.789868,0.27170876,0,1
-0.3910592,-12.1484995,-1.0377561,0,1
0.95006317,-8.431355,-0.50230664,0,1
2.514987,-6.0385065,-1.4906895,0,1
4.852902,6.928888,-4.5005283,0,1
3.3063297,11.40275,-3.570034,0,1
-0.3574578,6.463436,-1.8790765,0,1
-2.7657654,5.8785834,-1.2813041,0,1
-4.7414393,5.019628,-0.270939,0,1
-4.6753516,3.5544,0.47164935,0,1
-3.3871562,3.0232139,0.1606577,0,1
-1.1925815,-0.86344457,-0.9806467,0,1
0.43123293,-5.1028123,-1.3568225,0,1
0.80079514,-6.8122168,-0.74216217,0,1
0.5956603,-9.333418,0.246532,0,1
0.73217773,-9.201645,-0.07894109,0,1
2.3984025,-3.4037364,-1.5315725,0,1
-1.03492,10.40803,-0.108894505,0,1
-1.7600883,13.834716,1.1362631,0,1
-0.4202484,10.149199,-1.0849869,0,1
-0.6685708,7.8411937,-2.1368926,0,1
-2.749711,1.9376574,-1.8422621,0,1
-3.0285194,-3.201432,-0.7588699,0,1
-1.941052,-5.860951,0.18094122,0,1
0.51982087,-11.205858,-0.7611638,0,1
0.76562524,-11.450154,-1.650255,0,1
0.81215215,-9.173597,-0.19759516,0,1
3.843354,-2.421813,1.2843235,0,1
4.342941,5.091179,1.7897209,0,1
0.33618596,8.646025,1.1133003,0,1
-1.1066488,6.7511883,0.082886465,0,1
-3.0199597,6.163708,-1.7147999,0,1
-6.0768256,3.4696019,-1.5432159,0,1
-5.461944,2.7059107,-0.8731539,0,1
-1.9833912,1.2246275,-0.6403302,0,1
-0.3737448,-0.46761718,-0.72596407,0,1
1.8496543,-4.9886885,-0.09495879,0,1
1.6814882,-10.294289,0.46851525,0,1
1.1849716,-11.365839,0.18127094,0,1
2.5488343,-5.8590903,-0.34548452,0,1
3.141745,1.0646325,-0.82518303,0,1
0.4191845,14.987893,0.16315457,0,1
-1.3485348,11.488785,-0.09408243,0,1
-1.0839833,8.487194,-1.252902,0,1
-1.7010844,3.4413483,-1.9824408,0,1
-2.1580546,0.39722434,-1.1224566,0,1
-1.3709537,-5.5491257,-0.07738865,0,1
0.9805631,-11.131007,-0.10268214,0,1
1.6617248,-11.923346,-1.0643443,0,1
1.5799215,-9.518845,-1.8502269,0,1
2.6169846,-8.1504755,-0.6350774,0,1
3.4234247,5.4914846,4.00686,0,1
-2.0268805,12.661904,1.4379697,0,1
-1.0399036,8.674816,-1.0303826,0,1
-1.226466,5.241205,-2.824791,0,1
-3.2133021,2.7763603,-2.8009653,0,1
-2.6267867,-0.8197272,-0.7623231,0,1
1.4725299,-1.5769082,0.6578725,0,1
2.9310117,-2.5794127,0.3920778,0,1
3.6424856,-5.998762,0.71696043,0,1
3.081074,-7.825335,1.2637656,0,1
3.1410022,-9.239804,1.6213568,0,1
2.6505675,0.74038815,1.0869344,0,1
0.6484487,9.017389,0.5115325,0,1
-0.5166176,14.333646,0.29107547,0,1
0.7120667,11.429583,-0.82774484,0,1
0.63215375,5.855053,-3.0601747,0,1
-1.662576,-0.21036291,-3.588311,0,1
-1.8034875,-2.6020336,-2.8036273,0,1
-0.47795427,-7.8608017,-0.67224216,0,1
0.7449873,-10.876136,-0.38042402,0,1
1.9895613,-11.086219,0.36494845,0,1
2.770931,-6.3351083,3.5760987,0,1
3.2591019,-0.62179214,5.439593,0,1
-0.58633566,10.1023035,5.1849403,0,1
-2.146128,9.037935,1.8224511,0,1
-1.1453388,6.303844,-2.0425239,0,1
0.053148746,2.739598,-3.2093866,0,1
0.36730728,1.3746479,-2.9833164,0,1
0.6185355,0.054677695,-2.4147503,0,1
0.74096787,-1.5614963,-2.1647754,0,1
0.9150629,-5.959741,-0.79798764,0,1
0.3618571,-9.16763,0.20634581,0,1
0.5352991,-9.849478,0.57856077,0,1
1.4585754,-5.85432,3.3760543,0,1
2.0315173,0.25299707,4.821749,0,1
1.4975094,14.041652,3.563132,0,1
1.3011111,12.721969,2.4038548,0,1
1.9444532,9.291719,2.2031217,0,1
2.367049,3.5751183,-1.6008463,0,1
1.9993876,0.61342305,-3.155733,0,1
0.8960914,-4.217864,-2.4741118,0,1
0.5212008,-9.922185,-0.80987614,0,1
0.73889977,-12.206274,-0.03732303,0,1
0.25670838,-10.611247,1.3295319,0,1
-0.15230164,-8.698609,2.4867125,0,1
-1.9393804,2.351224,6.371107,0,1
-3.7116199,13.904975,4.067665,0,1
-2.3547063,10.842161,1.7677076,0,1
1.4947941,6.3559113,0.5638616,0,1
2.634781,4.7533317,0.09681493,0,1
2.6690035,2.079571,-0.9341018,0,1
0.52359873,0.8318922,0.18965021,0,1
-0.21847296,-1.1007996,1.0716463,0,1
-1.0988048,-6.2619963,1.8026115,0,1
-1.4521109,-8.115238,1.1321466,0,1
-1.1902025,-9.604308,-0.5867411,0,1
-0.89381313,-8.381453,1.5519037,0,1
-1.6430297,-4.915363,3.9027116,0,1
-2.0294492,8.832684,4.1146016,0,1
-0.089981094,13.471084,1.7514687,0,1
1.9414717,12.136577,1.5961542,0,1
3.4543364,7.129618,2.6366973,0,1
3.6120653,4.37245,2.8141534,0,1
1.9484348,-0.6363904,2.6221244,0,1
1.1272146,-3.0814097,1.4062468,0,1
0.53019446,-8.608876,-0.4772321,0,1
0.030206457,-10.695835,0.7959747,0,1
-0.6011974,-10.283155,0.9791239,0,1
-3.5636482,-7.15956,0.23760815,0,1
-4.92633,-1.9262141,-0.12820761,0,1
-1.99203,9.56251,-1.2153164,0,1
2.5185997,8.124723,0.7132596,0,1
3.3748407,7.348763,1.6810881,0,1
5.2416143,4.272193,2.7582443,0,1
4.492527,2.7617564,2.322463,0,1
0.73395723,2.2796147,0.8498909,0,1
-1.8588847,-1.519151,-0.04425696,0,1
-2.1954238,-4.637659,-0.6093059,0,1
-1.749313,-9.959958,-0.40365276,0,1
-1.0275773,-11.1044035,0.26642656,0,1
-1.3354826,-7.73637,0.28121868,0,1
0.512675,7.3590813,-0.87468106,0,1
2.7868593,15.687701,-1.6973302,0,1
0.5588536,13.460029,-0.62321496,0,1
-0.34191638,8.093756,1.2645096,0,1
2.2171438,2.8985562,1.5451065,0,1
3.8388124,-1.7373108,-0.98389655,0,1
3.1878552,-4.458401,-1.656108,0,1
-0.061555598,-10.708064,-0.19603346,0,1
-0.91795635,-12.47458,1.4337538,0,1
-2.0571878,-11.2871065,1.5198967,0,1
-5.8974233,-6.8944664,-0.85506415,0,1
-6.3298655,-0.24897237,-2.6968422,0,1
-0.15169665,11.175487,-4.65839,0,1
1.9979358,10.385187,-2.9659476,0,1
2.950847,8.075209,-0.5897281,0,1
3.8670883,3.574778,-0.3433943,0,1
2.9147735,2.373811,-0.95035654,0,1
-0.3498969,0.5265627,-0.6659111,0,1
-2.0081859,-1.5112717,-0.17825069,0,1
-3.685592,-7.1738367,-0.18263872,0,1
-1.8623471,-11.6586485,0.61367255,0,1
-1.1303729,-11.296275,0.7867119,0,1
-2.5443132,-3.071846,-0.024437377,0,1
-2.4077523,4.7251687,-0.99010676,0,1
-0.5912944,14.06243,-3.8832133,0,1
-0.7136667,9.526972,0.16473712,0,1
-0.4441735,6.7005787,1.4459779,0,1
1.0363184,0.54639554,1.1646165,0,1
1.5466152,-2.2076247,0.586308,0,1
0.6895764,-7.161972,-0.11725999,0,1
-0.12751211,-12.613646,1.7425404,0,1
0.09454578,-12.27118,2.1867898,0,1
-2.615037,-6.70756,-0.09550189,0,1
-4.684575,0.30932304,-2.0077465,0,1
-0.7149724,13.945998,-2.6130123,0,1
0.16002537,7.708658,0.33037537,0,1
-0.31806797,6.5727253,0.7962374,0,1
1.30419,1.7849544,0.8399762,0,1
0.73969275,-0.4292126,0.16600122,0,1
-2.2521913,-1.8165277,-0.74226636,0,1
-3.446254,-4.847982,-0.4076309,0,1
-3.0531068,-6.9508505,-0.3641488,0,1
-1.234326,-9.38418,-0.0332724,0,1
-1.3031173,-8.985714,0.517835,0,1
-2.0731924,0.35419473,0.68789417,0,1
-0.47760636,13.86342,-0.4703629,0,1
-1.122963,12.488914,0.03788726,0,1
-2.689896,6.9720383,1.3900546,0,1
-1.2747326,4.468783,2.0195704,0,1
1.5711757,-1.115874,3.000921,0,1
1.0792392,-6.0686064,1.4964141,0,1
0.57101524,-9.127044,0.6527029,0,1
-0.34977606,-11.159186,0.6286642,0,1
-1.099197,-8.964281,-0.25395855,0,1
-5.3270597,-1.3807446,-3.733757,0,1
-4.1795173,10.988474,-3.2683706,0,1
-0.951407,11.334816,-0.9548604,0,1
0.094030485,7.9988537,0.8137263,0,1
-0.48221353,5.8614764,1.4072441,0,1
-1.204717,1.1476958,1.0509437,0,1
-1.159234,-0.80073005,-1.1653239,0,1
-0.58945334,-1.975174,-1.6924605,0,1
0.13295025,-5.706833,-2.1831923,0,1
0.32152265,-7.3855343,-1.9480593,0,1
-0.6429519,-8.560203,-0.98538667,0,1
-1.9875449,-2.8337393,-2.1220112,0,1
-1.617991,3.9775755,-1.5501108,0,1
-0.84374106,10.74971,1.6462617,0,1
-1.2561892,9.504536,0.16609162,0,1
-1.3218673,5.280667,0.3479984,0,1
-1.5042824,-0.16824017,3.5097203,0,1
-1.9712331,-2.0383527,3.5485327,0,1
-1.2684174,-5.7271852,1.1927775,0,1
-0.6503346,-7.964221,0.22679657,0,1
0.21567383,-7.3007174,-1.5231755,0,1
0.87789965,-1.1552377,-3.3936777,0,1
1.6548092,1.9649913,-4.2025323,0,1
3.0658276,5.54345,-1.3858203,0,1
2.827845,5.0024056,1.0308646,0,1
1.2244623,2.2996151,-0.2811194,0,1
1.093535,0.3219756,-1.4241526,0,1
1.3159174,-0.50787556,-0.7767126,0,1
1.7654686,-0.6613445,0.22651552,0,1
1.7775762,-0.67534256,0.37102917,0,1
1.2562834,-1.7648174,0.5087781,0,1
0.27395427,-1.6647578,1.3006895,0,1
-0.46070683,-1.193591,1.716609,0,1
-1.4241815,0.013585292,1.854551,0,1
-1.5487843,0.31122893,1.4151131,0,1
-1.5131804,1.6620096,0.9460125,0,1
0.55141443,1.743211,0.046634085,0,1
1.3562233,1.1614485,-0.948529,0,1
1.2072996,-0.3023121,-1.5312533,0,1
0.63984466,-0.9735806,-1.1868966,0,1
-0.6227032,-1.2369473,-0.5279105,0,1
-0.5953592,-0.6468593,-0.633066,0,1
-0.23367937,-0.3901302,-0.77331895,0,1
0.35992825,0.21672814,-0.88496685,0,1
0.4755172,0.4687805,-0.8271237,0,1
0.35115945,0.50906557,-0.8190624,0,1
0.027200863,-0.20268069,-0.5779199,0,1
-0.15569553,-0.5547925,-0.4335719,0,1
-0.24188699,-0.6674005,-0.23806986,0,1
-0.15959746,-0.40076074,-0.2554955,0,1
0.19832526,0.43597415,-0.2850328,0,1
0.23317485,0.28910542,-0.1758413,0,1
0.043145966,-0.010771746,0.046292014,0,1
-0.029541343,-0.3307247,0.41600728,0,1
0.20472845,-0.36348817,0.4093779,0,1
0.5024698,-0.20714854,0.29060742,0,1
0.3706584,-0.037259046,0.44407168,0,1
0.23140192,0.06373127,0.5564669,0,1
0.010835294,0.09244355,0.600185,0,1
-0.026142485,0.034456324,0.57061726,0,1
0.047858898,-0.02449508,0.3998964,0,1
0.08026761,-0.020864457,0.25814465,0,1
0.006068718,-0.028799983,0.2669668,0,1
-0.2318289,-0.020253142,0.38062224,0,1
-0.307071,-0.009598691,0.39220288,0,1
-0.24183732,-0.06251332,0.32155928,0,1
0.020644229,-0.10664079,0.3033046,0,1
0.16906369,-0.09242532,0.28328785,0,1
0.3349103,-0.013967496,0.12787056,0,1
0.35595205,0.02362825,0.054202568,0,1
0.35387573,0.055336967,0.007776729,0,1
0.34152824,0.029268276,0.018907826,0,1
0.3376462,0.018484121,-0.008893969,0,1
0.3274423,-0.03993035,-0.056384407,0,1
0.3254381,-0.06514359,-0.059413604,0,1
0.31187564,-0.032676704,-0.059012827,0,1
0.3057118,0.007448198,-0.030795468,0,1
0.32146347,0.014834408,-0.026423953,0,1
0.30936676,0.019571308,-0.018367987,0,1
0.26307535,-0.003713606,-0.015304823,0,1
0.07898252,-0.033432964,-0.000237162,0,1
-0.033262465,-0.01543236,0.002921152,0,1
-0.01836073,-0.004772188,-0.00438032,0,1
0.06128258,-0.00567055,-0.021515843,0,1
0.07244707,1.81E-05,-0.021382514,0,1
0.005988788,0.01763821,0.019948581,0,1
-0.06451545,-0.010297769,0.07146913,0,1
-0.06354944,-0.023910515,0.09628127,0,1
-0.04524602,-0.03575038,0.10081562,0,1
-0.06640294,-0.052667614,0.09041304,0,1
-0.10130565,-0.08450222,0.078812376,0,1
-0.07104337,-0.05012035,0.111622244,0,1
-0.061380148,-0.036435116,0.1189575,0,1
-0.0739227,0.006739628,0.09607116,0,1
-0.06628756,0.012678156,0.07191545,0,1
-0.007870683,-0.03561687,0.07209379,0,1
-0.029370684,-0.10788251,0.081755936,0,1
-0.059146535,-0.13082695,0.12379746,0,1
-0.10209894,-0.07113741,0.21070035,0,1
-0.13352531,0.003768947,0.22971922,0,1
-0.21685569,-0.07503604,0.15060405,0,1
-0.21572742,-0.17895697,0.23568703,0,1
-0.18772903,-0.13757132,0.2719011,0,1
-0.09917628,0.043187164,0.16921991,0,1
-0.04536712,0.097559,0.08780649,0,1
0.13306372,0.19614318,-0.05592025,0,1
0.7522946,0.16359425,-0.22894663,0,1
1.1239934,-0.18144421,-0.40014136,0,1
1.1388165,-0.90640473,-1.0478765,0,1
0.81127644,-0.6730425,-1.3439833,0,1
-0.20989409,0.68139356,-1.1641515,0,1
-1.2769382,1.2390566,-0.5376712,0,1
-1.3728789,0.96885496,-0.405393,0,1
-1.1639726,-0.12008488,-0.7449897,0,1
-1.1428003,-0.5118305,-0.97955644,0,1
-1.0843226,-0.6580517,-1.2552152,0,1
-1.1328778,-0.68378854,-1.5435191,0,1
-1.1940302,-0.6767333,-1.6262791,0,1
-1.3967024,-0.5544227,-1.7045242,0,1
-1.47645,-0.3918317,-1.7502917,0,1
-1.4401866,-0.09407831,-1.8078629,0,1
-1.1261526,0.7929524,-1.676207,0,1
-0.6588218,1.8511829,-1.444305,0,1
0.36276835,2.5683403,-1.2916696,0,1
0.55069673,1.6838952,-1.3627151,0,1
0.66843534,-0.4742613,0.11619183,0,1
0.73910403,-1.3651704,2.0094504,0,1
1.0601984,-1.1949662,2.1316288,0,1
1.8560386,-0.9137191,1.1828815,0,1
1.838785,-0.7713032,0.84553057,0,1
0.6853583,-0.27223578,0.9658774,0,1
-0.5333348,-0.33449358,0.7978448,0,1
-0.8699646,-0.48771095,0.550493,0,1
-1.0718886,-0.5413752,0.2379506,0,1
-0.98179626,-0.44563013,0.1414669,0,1
-0.51168495,-0.26064402,-0.12243074,0,1
0.04258569,-0.12181193,-0.38615558,0,1
0.14566207,-0.08012968,-0.45128578,0,1
-0.23848327,0.019413907,-0.339637,0,1
-0.697927,0.14347647,-0.20589595,0,1
-1.6742424,0.24343583,-0.25991186,0,1
-1.9790176,0.5080747,-0.81282294,0,1
-1.7166969,0.921587,-1.0381082,0,1
-1.191035,1.7661334,-0.7897359,0,1
-1.112449,1.9065754,-0.23029462,0,1
-0.020661078,1.173074,0.9950946,0,1
2.4350808,-0.228134,1.2295101,0,1
3.332268,-0.67029274,0.89073116,0,1
3.0650637,-1.1154728,0.40154094,0,1
2.1298795,-0.89359576,0.20280002,0,1
0.21344115,-0.17148879,-0.20667899,0,1
-0.88320786,-0.1824485,-0.8237152,0,1
-1.1837378,-0.3013565,-1.1604162,0,1
-1.1528056,-0.6820443,-1.791406,0,1
-0.9394529,-0.8950218,-2.1198945,0,1
-0.5051703,-1.3140988,-2.6243625,0,1
-0.2818403,-1.3331684,-2.400393,0,1
-0.19728376,-0.9968027,-2.0040653,0,1
0.36773568,0.54625696,-0.93044376,0,1
1.0237006,1.6981555,-0.8313266,0,1
2.1007998,2.5567849,-1.2481104,0,1
1.3549905,3.611463,-0.28844494,0,1
0.8920623,3.2854934,0.22444293,0,1
0.55589557,0.18511598,1.2311504,0,1
0.0419219,-1.3338565,1.7983004,0,1
-0.7251231,-2.7331882,2.0332568,0,1
0.09350051,-1.4909304,1.7116524,0,1
0.48663437,-1.0148602,1.3741729,0,1
0.48068634,-0.8518791,0.7773196,0,1
0.3499035,-0.8935929,0.66085494,0,1
-0.23531982,-0.5532284,0.5606948,0,1
-0.80943984,-0.4979296,0.3975169,0,1
-0.82073724,-0.42814544,0.29499245,0,1
-0.28041467,-0.2751847,-0.102193445,0,1
0.052841667,-0.24839216,-0.2434264,0,1
0.4360866,-0.19442947,-0.4820958,0,1
-0.2496854,0.27773473,-0.49867716,0,1
-0.79917645,0.36696526,-0.38024887,0,1
-1.0143272,1.1173316,-0.17003892,0,1
-0.74150324,2.0067294,0.18474433,0,1
-0.36692023,2.6892893,0.9360996,0,1
1.3046387,0.2672435,0.7245875,0,1
2.225885,-0.4702072,0.22948343,0,1
1.7945155,0.57817656,-0.39004284,0,1
0.90839475,0.89023215,-0.47718862,0,1
0.06721403,-0.27421105,-0.74385303,0,1
0.22062981,-1.7804912,-1.1472613,0,1
0.33516967,-1.9384006,-1.2458497,0,1
0.7092895,-1.4787962,-1.0259092,0,1
1.0408051,-1.4143631,-0.6635641,0,1
1.8201857,-0.8982917,-0.44413817,0,1
2.0940025,-0.086265475,0.5938498,0,1
1.4462438,0.18164267,0.85469306,0,1
0.09669763,0.6165421,1.2805413,0,1
-0.08707042,0.25265807,1.2609296,0,1
0.30398265,-0.47866914,0.794905,0,1
1.1023709,-0.41687396,0.04937705,0,1
1.4884616,-0.5416003,-0.23783003,0,1
1.3109019,-0.6910058,-0.48092666,0,1
1.1816332,-0.75835145,-0.36933634,0,1
1.1730165,-1.2656289,-0.096788965,0,1
0.86688054,-1.2142879,-0.462999,0,1
0.9248487,-1.0119115,-0.59064305,1,0
0.9461874,-1.3423406,-0.5772155,1,0
0.8603406,-1.6808313,-0.912032,1,0
0.9973598,-2.1366787,-1.4396113,1,0
1.120476,-2.2767916,-1.2676145,1,0
0.7298695,-1.7226413,-1.51083,1,0
0.39088508,-0.3699505,-1.5013325,1,0
0.5722058,-0.6850006,-0.8520695,1,0
0.1027372,-2.7032526,-0.15682101,1,0
0.18253627,-4.7241054,-0.78129685,1,0
0.7808028,-5.299697,-0.76234704,1,0
1.5142885,-6.0617256,-0.92551386,1,0
1.2400458,-5.942258,-1.2019527,1,0
0.73767793,-5.434936,-1.2648937,1,0
0.030430853,-6.6729093,-1.0893496,1,0
-0.9694071,-7.4629574,-0.66302353,1,0
-2.9899893,-6.941772,1.9226339,1,0
-3.459513,-5.6129,3.08085,1,0
-3.4672856,2.031918,2.376464,1,0
-0.66522,18.1353,17.855062,1,0
2.5218837,27.635113,28.993309,1,0
0.5100517,18.473885,13.458304,1,0
0.09350026,16.427313,5.096245,1,0
1.9004295,8.922787,-3.4483478,1,0
1.6857047,3.2355127,-4.6682014,1,0
-1.7334411,2.9334655,-4.973171,1,0
0.3892755,-2.422896,-6.903152,1,0
0.16161692,-6.2029943,-4.3337913,1,0
-3.908071,-8.266026,5.318346,1,0
-4.4558935,-6.303009,6.9924545,1,0
-4.7215657,-4.235666,6.2036896,1,0
-5.292749,2.6509178,4.891323,1,0
-5.015918,3.2323415,2.5467777,1,0
2.6443245,-1.1437632,-4.0363393,1,0
3.5619695,2.3323164,-1.5036643,1,0
1.4024858,2.6327052,0.9711832,1,0
-1.9864402,3.6319196,1.8926917,1,0
-3.4055011,3.6147373,1.8427973,1,0
-3.741405,1.128773,1.7861334,1,0
-1.6345977,-0.2677278,0.8626862,1,0
-0.3787405,-1.3942977,0.29844457,1,0
0.006337812,-2.6973798,0.09765704,1,0
0.33260158,-2.2542894,0.087576866,1,0
0.13242458,-0.35537717,0.37112114,1,0
-0.16752829,1.7858269,-0.21243069,1,0
0.09578782,2.6169007,-0.366185,1,0
0.6354356,3.0128608,-0.3365829,1,0
0.57206684,2.1779902,-0.18894146,1,0
0.24661277,-0.47497654,0.4651958,1,0
-0.24810567,-1.4086915,0.1232731,1,0
-0.7347757,-1.5689366,-0.082156874,1,0
-0.8017649,-1.6244357,-0.085502945,1,0
-0.6199518,-1.249755,0.13491882,1,0
-0.52947235,-0.17873284,0.4328615,1,0
-0.30857217,0.54870325,0.10419498,0,1
-0.23273839,0.7014256,0.13433063,0,1
0.21805967,0.85176677,0.358184,0,1
0.43222815,0.42254934,0.26431063,0,1
0.24030489,-0.17729184,0.3911886,0,1
0.16203806,0.02227601,0.6896806,0,1
0.18235713,0.15099344,0.58968496,0,1
-0.22336206,-0.06913277,0.37883475,0,1
-0.28134954,-0.1384363,0.31967804,0,1
-0.35528192,-0.045865048,0.17033151,0,1
-0.5088841,-0.37637714,0.24447288,0,1
-0.39982328,-0.5372992,0.29160526,0,1
-0.36246258,-0.5274144,0.20257255,0,1
-0.3864557,-0.51255995,0.10279776,0,1
-0.17986679,-0.3100262,0.099209554,0,1
0.16932683,0.024846097,0.11954246,0,1
0.333733,0.0979319,0.12141247,0,1
0.5037554,0.13706498,0.15667526,0,1
0.5168015,0.17025092,0.10479459,0,1
0.50388694,0.20783429,0.03576295,0,1
-0.008008686,0.06316568,0.080440916,0,1
-0.2328397,-0.06291295,0.057750076,0,1
-0.0879064,-0.21847731,-0.2553499,0,1
0.043030407,-0.2683621,-0.2721001,0,1
-0.017705292,-0.71439844,-0.03742184,0,1
-0.31100282,-0.7311507,0.22021824,0,1
-0.3264447,-0.21899986,0.34395787,0,1
0.17824867,0.4839011,0.13051173,0,1
0.31157053,0.41617018,0.08524951,0,1
0.08106552,0.15855789,-0.16507292,0,1
-0.25699443,0.37922105,0.19945149,0,1
-0.35948074,0.3564292,0.6045488,0,1
-0.3675583,0.053899903,1.1343013,0,1
-0.17699252,-0.021346921,1.0962404,0,1
0.12766719,-0.30794522,0.4604117,0,1
0.27292293,-0.6707545,0.001190094,0,1
0.31857803,-0.6818505,0.1969447,0,1
0.30403367,-0.29002285,0.3141379,0,1
0.28917366,-0.01911351,0.23957323,0,1
0.30844325,0.27609923,0.06740731,0,1
0.24620149,0.29556274,-0.20347533,0,1
-0.010856546,0.13230608,-0.20285179,0,1
-0.22435322,0.035438538,0.009993327,0,1
-0.24140412,0.049434673,0.04836996,0,1
-0.52232474,0.034375183,-0.02697238,0,1
-0.5063516,-0.21075824,0.004862622,0,1
-0.32476395,-0.33422282,0.0044152,0,1
-0.08532736,-0.32807162,0.056908466,0,1
-0.034136698,-0.22296812,0.10474138,0,1
0.21056765,-0.035534844,0.12520136,0,1
0.2284657,0.111170806,0.137777,0,1
0.103884295,0.20238692,0.25999826,0,1
-0.09490923,0.045807887,0.3791446,0,1
-0.067231044,-0.032000512,0.29334706,0,1
0.18239954,0.18737507,-0.09309543,0,1
0.17525765,-0.018277174,-0.059611302,0,1
0.078454524,-0.061138134,0.2025558,0,1
0.12657887,0.09950266,0.6523803,0,1
0.006359652,0.14152251,0.7675608,0,1
-0.0338199,0.22208793,0.34822777,0,1
0.009770048,-0.09044649,-0.0461745,0,1
0.09214884,-0.28273395,-0.10885725,0,1
0.37503308,-0.5096359,0.4976762,0,1
0.26021373,-0.27424514,1.2476362,0,1
-0.28126183,0.8635962,1.0596789,0,1
-1.087747,0.8891145,0.16554292,0,1
-1.2578148,1.0442601,-0.12520987,0,1
-2.084271,0.968033,0.5552447,0,1
-2.241043,1.0340836,1.0893742,0,1
-1.8465616,1.1492398,1.2610294,0,1
-1.4758527,1.4867984,0.10312111,0,1
-1.0569699,2.0508664,-0.60360897,0,1
0.11369822,3.0271678,-0.8996252,0,1
0.42816454,2.7289736,-0.34905645,0,1
0.6076191,1.6495508,0.9979906,0,1
0.124481596,0.65549016,1.6496367,0,1
-0.24995914,-0.05529672,1.5968097,0,1
-0.58318,-0.4395741,1.7476553,0,1
-0.43701062,-0.31266385,1.7745785,0,1
-0.4914048,-0.43690866,1.1667552,0,1
-0.5702443,-1.488203,1.1283935,0,1
-0.4161029,-1.6885434,1.1609577,0,1
-0.102807045,-2.0599177,0.6267057,0,1
0.07569519,-1.8444054,0.284189,0,1
-0.19221532,-0.667883,-0.21921428,0,1
-0.29708645,0.0570554,-0.6536591,0,1
-0.35660204,0.27290338,-0.7877126,0,1
-0.76261175,0.4216767,0.08868359,0,1
-1.0099379,0.5916216,0.92480135,0,1
-1.263063,0.51953334,1.2676046,0,1
-0.6270066,2.7039378,0.17843792,0,1
-0.3628193,4.126552,-0.44596332,0,1
0.55335647,5.31259,-1.6086761,0,1
1.1604598,4.6109967,-2.09075,0,1
1.5205146,1.8055458,-2.3181286,0,1
1.1094804,-0.22330979,-2.1525168,0,1
0.7519725,-0.5018265,-1.7804427,0,1
-0.1953232,-0.6382076,-1.2095836,0,1
-0.50573707,-0.8770888,-0.9886435,0,1
-0.5405224,-1.0469629,0.051326454,0,1
0.11795546,-1.1230278,0.99165654,0,1
0.65012,-1.1689405,1.041012,0,1
1.6800281,-1.1001855,0.03144512,0,1
1.8162959,-1.1698533,-0.6999752,0,1
1.2924564,-1.4705718,-1.583647,0,1
0.54210657,-1.9176658,-1.4322777,0,1
0.2504389,-2.0372365,-0.92540896,0,1
-0.080203,-1.9374005,0.542989,0,1
-0.33950788,-1.7493907,1.1135885,0,1
-0.6159458,-1.3797235,1.2226689,0,1
-0.54016924,-1.4067298,0.38935685,0,1
-0.45173433,-1.3570691,-0.09155789,0,1
-0.1724456,-1.2686827,-0.8671438,0,1
-0.16487804,-1.3528931,-0.87850827,0,1
-0.63814485,-1.4561712,-0.11438177,0,1
-0.76686287,-1.84681,1.002806,0,1
-0.7467055,-1.8233787,1.5201962,0,1
-0.59590393,-1.1734742,2.056159,0,1
-0.31599897,-0.99090093,1.7069012,0,1
0.08720076,-0.68151665,0.5655181,0,1
0.5201862,-0.58364034,-1.3711317,0,1
0.5846146,-0.17898011,-1.980752,0,1
0.92078424,2.0026102,-2.6586902,0,1
1.276937,3.0042298,-3.1298394,0,1
1.0745766,1.1531371,-2.2061121,0,1
1.1524928,-1.8107622,-0.24011129,0,1
1.7143478,-2.0225084,0.24675818,0,1
2.2061865,-0.5912648,-0.0183631,0,1
1.9233925,0.18393321,-0.7353022,0,1
0.9451375,0.6803025,-1.8299727,0,1
0.5573422,0.43953884,-1.6210579,0,1
0.50456977,0.1792239,-1.1555091,0,1
0.42621708,0.08864496,-0.28872243,0,1
0.38539702,0.14872073,-0.25207695,0,1
0.36915737,0.41446403,-0.31392112,0,1
0.23465167,0.50751215,0.037248038,0,1
0.14994071,0.5229188,0.4014318,0,1
0.28773412,0.5008976,0.94005877,0,1
0.3205545,0.24000372,0.8799403,0,1
0.31427163,0.031779375,0.65195423,0,1
-0.10296879,-0.13216782,0.11245637,0,1
-0.31951368,-0.23865704,-0.039767243,0,1
-0.574849,-0.2725964,0.09281305,0,1
-0.569898,-0.31093314,0.1224999,0,1
-0.44169584,-0.27521327,0.0691202,0,1
-0.30449593,-0.017373119,-0.22807825,0,1
-0.20766427,0.06360814,-0.3026073,0,1
-0.12686911,0.0935011,-0.005472938,0,1
-0.13863543,-0.009994495,0.1251869,0,1
-0.2536948,-0.2927542,0.10191732,0,1
-0.45375347,-0.33621317,-0.16279238,0,1
-0.4972118,-0.28959662,-0.27428603,0,1
-0.27176896,-0.22388846,-0.17466214,0,1
-0.09421487,-0.30088237,0.08277494,0,1
-0.26990068,-0.14346595,0.4900309,0,1
-0.50689864,0.41944894,0.43146747,0,1
-0.5547579,0.15463357,0.37620503,0,1
-0.48835304,-0.14324854,0.34252304,0,1
-0.3719701,-0.124698624,0.29162574,0,1
-0.12019939,-0.13485144,0.32519162,0,1
-0.16270064,0.48847875,0.1704133,0,1
-0.3958542,0.70897675,-0.24998838,0,1
-0.9183324,0.23590837,-1.3121592,0,1
-1.1363466,-0.2332718,-1.3717667,0,1
-1.4425805,-0.03676423,-0.5100219,0,1
-1.1758552,0.9371606,0.3587501,0,1
-1.1616571,0.85093135,0.63286805,0,1
-1.2282666,-0.17613024,0.7221395,0,1
-1.222007,-0.6828871,0.58801895,0,1
-1.1725374,-1.1077319,0.58072335,0,1
-1.3775668,-0.62005526,0.3912133,0,1
-1.4342914,-0.5036631,0.18467566,0,1
-1.370739,-0.79322827,0.19250639,0,1
-1.2891678,-0.89464766,0.42713848,0,1
-1.1172826,-0.68146896,0.613835,0,1
-1.3554167,-0.2309456,0.34333622,0,1
-1.582978,-0.12120915,0.22243331,0,1
-1.928697,0.08423805,0.1940705,0,1
-2.0705805,0.17966938,0.18117811,0,1
-2.3102036,0.3459406,0.014510404,0,1
-1.9521661,1.351882,-0.3202572,0,1
-1.4848589,2.123546,-0.62829447,0,1
-0.698192,2.7846193,-1.2990338,0,1
-0.7866298,2.3285398,-1.4296767,0,1
-0.37792867,0.41546622,-1.0901395,0,1
1.4209788,-1.128379,-0.04464411,0,1
2.2401657,-1.3642731,0.35954472,0,1
2.6347616,-1.1640655,-0.012982597,0,1
2.3643699,-1.0339996,-0.5125126,0,1
1.7005732,-0.870723,-1.3741523,0,1
1.2816166,-0.53997535,-1.2137077,0,1
1.218404,-0.4785701,-0.7504373,0,1
1.039929,-0.43044186,0.39147875,0,1
0.8202604,-0.23062125,0.852512,0,1
0.01228562,0.05781285,1.294329,0,1
-0.56851697,-0.20562162,1.1472683,0,1
-0.62666833,-0.32278147,1.0425913,0,1
-0.5146045,-0.30447668,0.91034883,0,1
-0.4611205,-0.22980589,0.78887445,0,1
-0.29583985,-0.10204025,0.48461458,0,1
-0.16076767,0.002752338,0.30441836,0,1
-0.13806543,0.019248998,0.3070714,0,1
-0.36719748,0.033465464,0.6611506,0,1
-0.6119982,0.031046014,0.8840567,0,1
-0.9614995,0.14647688,1.0711405,0,1
-0.78931665,0.6867305,0.6942788,0,1
-0.6038243,1.0204127,0.64774144,0,1
-0.041226305,1.4460404,1.0203626,0,1
0.45294577,1.4268544,0.7459162,0,1
1.5194497,0.6357326,-1.2660533,0,1
1.6974545,-0.50767076,-2.6336625,0,1
1.4188036,-0.90208566,-2.4037948,0,1
0.57900596,-0.72307414,-1.1625457,0,1
0.31742024,-0.2809173,-0.73864883,0,1
0.36896133,0.27933118,-0.6593497,0,1
0.25126025,0.28367224,-0.99569696,0,1
-0.01895056,-0.09382451,-0.94550157,0,1
-0.3997532,-0.8134338,-0.60301423,0,1
-0.5475403,-0.856764,-0.5103044,0,1
-0.9954481,-0.5645572,-0.22151802,0,1
-1.3094189,-0.13814354,0.2984827,0,1
-1.4799601,-0.16562556,0.40364262,0,1
-1.7595452,-0.6012412,0.37115222,0,1
-1.7296853,-0.7670461,0.3230519,0,1
-1.2642988,-0.5772525,-0.12117384,0,1
-0.8569122,0.34525958,-0.93669033,0,1
-0.7438368,0.6453618,-1.3556789,0,1
-0.5649512,0.7523564,-1.8498645,0,1
-0.33480054,1.160117,-1.7761971,0,1
0.5045872,2.180379,-1.3201315,0,1
0.4378215,1.3673401,-1.1268369,0,1
0.2875459,0.44428822,-0.86689603,0,1
0.6291142,-0.9935971,0.30525386,0,1
0.97601426,-1.1650915,0.78263974,0,1
1.658315,-1.0324135,0.68096393,0,1
1.6450313,-0.72387314,0.22825374,0,1
1.5150286,-0.4259291,0.14936301,0,1
1.1092579,-0.09168432,0.14186415,0,1
0.8242677,-0.076918565,0.25520113,0,1
0.2984206,-0.24460979,0.56570995,0,1
0.040971592,-0.37975404,0.6838668,0,1
-0.13995142,-0.3457393,0.7033849,0,1
-0.4742343,-0.22742362,0.6471786,0,1
-0.55875784,-0.18079753,0.5635679,0,1
-0.67566735,-0.07998274,0.28834254,0,1
-0.5834428,-0.13123514,0.1178603,0,1
-0.5188174,-0.20296195,0.12349386,0,1
-0.5687348,-0.054840077,0.2300058,0,1
-0.5949286,-0.03889941,0.21040109,0,1
-0.6924592,-0.12953377,0.18667607,0,1
-0.98366916,-0.35306835,0.44078723,0,1
-1.0274501,-0.34152505,0.7287827,0,1
-0.9302608,0.19524688,1.3598317,0,1
-0.8191442,0.76034385,1.5470589,0,1
-0.26821607,2.0949864,1.4652513,0,1
0.47289845,2.1118376,0.8832829,0,1
0.64286774,1.5397552,0.49021474,0,1
0.93886137,-0.16378978,-0.21684559,0,1
0.9460519,-1.0545512,-0.5061096,0,1
0.4464264,-1.7953228,-0.7910307,0,1
-0.06371412,-0.28518018,-0.47558638,0,1
-0.05678314,0.6743117,-0.16640915,0,1
0.027565513,1.0009147,0.23364283,0,1
-0.015688214,0.59503186,0.3061769,0,1
-0.08860897,-0.5182762,0.42302346,0,1
-0.17146263,-0.97579867,0.6485891,0,1
-0.19811161,-0.9303456,0.5920712,0,1
-0.15559863,-0.88169014,-0.034013726,0,1
-0.18193762,-0.7520162,-0.15402202,0,1
-0.13658912,-0.426982,0.0807265,0,1
0.21464571,-0.88139546,-0.066583745,0,1
0.2812569,-0.7806694,-0.32281926,0,1
0.15504229,0.12746035,-1.3208388,0,1
0.10086854,0.56869394,-1.9957074,0,1
-0.018190771,0.58067006,-3.0092475,0,1
-0.09831792,0.8327272,-2.9803607,0,1
0.08898097,0.5739305,-2.314637,0,1
0.9609286,-0.4976875,-0.74672824,0,1
1.407402,-0.84991753,-0.36550677,0,1
1.4267465,-0.67257315,-0.26968277,0,1
0.44833678,-0.08777056,-0.79790014,0,1
-0.13856235,0.21515457,-0.8686558,0,1
-0.1418145,0.6605425,-0.47034946,0,1
0.3096219,0.64290434,-0.17239948,0,1
0.51332873,0.40951356,0.07133777,0,1
-0.18257588,0.20843315,-0.2472366,0,1
-0.52749383,0.0918674,-0.40127423,0,1
-0.7767653,-0.08202654,-0.33084267,0,1
-0.806144,0.07737634,-0.18018563,0,1
-0.45359376,0.18284896,0.14784925,0,1
-0.19226602,-0.02957723,0.28197026,0,1
-0.18060428,0.006327658,0.26211515,0,1
-0.11085836,0.012177506,0.3265267,0,1
-0.018347697,-0.09242723,0.2357926,0,1
0.14934105,-0.19274046,0.11427396,0,1
0.31989923,-0.10002609,0.38554466,0,1
0.36415225,-0.038838346,0.32964373,0,1
0.07235317,0.16742043,0.20572118,0,1
-0.07179582,0.110433616,0.17462365,0,1
0.24382895,-4.67E-05,0.14070846,0,1
0.61436594,0.025209472,0.27160382,0,1
0.61743104,0.10543447,0.26224825,0,1
0.6102786,0.08810999,0.07070575,0,1
0.66271514,0.01636506,-0.019610284,0,1
0.7967457,-0.029545773,0.034747217,0,1
1.0349032,0.036142368,0.015034971,0,1
1.053353,0.03264143,-0.001568314,0,1
0.6399203,-0.045418732,0.026175039,0,1
0.39572585,-0.12893488,-0.0923877,0,1
0.29222083,-0.49625027,-0.63528836,0,1
0.09317686,-0.10873997,-0.9134916,0,1
-0.22585437,0.20159714,-0.83016443,0,1
-1.2166023,0.041767977,-0.70030785,0,1
-1.7472982,-0.25467503,-0.6416165,0,1
-2.625737,-0.50533503,-0.48937804,0,1
-3.2828002,-0.35163313,0.06752877,0,1
-3.333198,-0.18813708,0.41318303,0,1
-2.5581286,0.039718673,0.6445952,0,1
-1.867491,0.023233457,0.5646582,0,1
-0.8518043,-0.1295023,0.17198871,0,1
-0.74484146,-0.26924518,0.08588157,0,1
-0.8134966,-0.22249225,0.1237306,0,1
-1.2329385,0.045066833,0.12238911,0,1
-1.4384543,0.2449341,0.100527965,0,1
-1.3487375,0.313077,0.1311408,0,1
-0.81610143,-0.015288364,0.019707462,0,1
-0.65358746,-0.14529613,0.000437928,0,1
-0.6258488,-0.071339615,0.08098285,0,1
-0.65770525,0.051380172,0.12652123,0,1
-0.5305408,0.13546754,0.09626537,0,1
-0.35782117,0.024139404,0.018424975,0,1
-0.2935255,0.002157211,0.026475746,0,1
-0.06016248,0.04070186,-0.076524235,0,1
0.08000381,0.024685843,-0.17794283,0,1
0.16296875,-0.054891624,-0.26410267,0,1
0.11584752,-0.108416595,-0.17703483,0,1
0.013545471,-0.110889465,-0.105413295,0,1
-0.22076064,-0.067248344,0.11444772,0,1
-0.32043856,-0.031366333,0.1927562,0,1
-0.41425315,0.003582022,0.22353321,0,1
-0.529571,0.08177474,0.2764455,0,1
-0.69088984,0.099634215,0.33724144,0,1
-0.98046756,0.064456984,0.4220795,0,1
-1.0295849,0.0611792,0.38810897,0,1
-0.9773395,0.1380749,0.23481666,0,1
-0.9911627,0.2093306,0.23308831,0,1
-0.99010986,0.2449265,0.24300033,0,1
-0.78836614,0.1575909,0.2351615,0,1
-0.6137983,0.059711482,0.23583776,0,1
-0.24769877,-0.002451881,0.16371185,0,1
-0.07072585,0.02240182,0.084871575,0,1
-0.041596957,0.061659824,0.027173009,0,1
0.11956201,-0.045853626,-0.07851385,0,1
0.26524267,-0.12921622,-0.1341491,0,1
0.47273156,-0.13429646,-0.25660318,0,1
0.45673248,-0.14910989,-0.27380565,0,1
0.39970472,-0.13973908,-0.27817515,0,1
0.28800207,-0.11308198,-0.29002017,0,1
0.30547878,-0.12583642,-0.3003491,0,1
0.37381628,-0.18113713,-0.29350784,0,1
0.3059819,-0.17487435,-0.23945089,0,1
0.28457695,-0.11949257,-0.21108069,0,1
0.2764499,0.016650192,-0.11914572,0,1
0.27630335,0.01575851,-0.0786396,0,1
0.14074598,0.004954343,0.021757068,0,1
0.11103062,0.06816389,0.08079048,0,1
0.18892595,0.07071402,0.078721136,0,1
0.21838918,0.000595102,0.048955344,0,1
0.12047405,-0.030421251,0.059304833,0,1
-0.03287976,-0.031204224,0.029225206,0,1
-0.053194996,-0.043426517,0.012376059,0,1
-0.06176196,-0.058514602,0.014359767,0,1
-0.10968149,-0.08573915,-0.046503082,0,1
-0.11835788,-0.054040924,-0.05877512,0,1
-0.007687993,-0.028761873,-0.05115693,0,1
0.067500606,-0.11267952,-0.19556925,0,1
0.026266858,-0.09830002,-0.19255131,0,1
-0.11653268,-0.057336833,-0.15642595,0,1
-0.15778124,-0.0923672,-0.15492629,0,1
-0.12957475,-0.12774757,-0.09395534,0,1
0.113411024,-0.033064853,-0.085503764,0,1
0.26543006,0.03411102,-0.09437402,0,1
0.44121304,0.027709017,0.00214124,0,1
0.46186873,0.005662933,0.066813864,0,1
0.43937337,0.006616607,0.06436429,0,1
0.3915741,0.029479994,0.029362846,0,1
0.37648264,0.03354932,0.003812958,0,1
0.3733777,-0.025757799,-0.08972564,0,1
0.29706323,-0.061958335,-0.15852004,0,1
-0.024164187,-0.053181686,-0.24686204,0,1
-0.33022264,-0.034970332,-0.35235122,0,1
-0.42712125,-0.02976423,-0.36785927,0,1
-0.47711447,-0.02870373,-0.26122758,0,1
-0.43014258,-0.060486834,-0.21941054,0,1
-0.26780853,-0.10970311,-0.202,0,1
-0.207976,-0.010481859,-0.16828063,0,1
-0.21588491,0.017056447,-0.15005562,0,1
-0.23544562,0.019663794,-0.13485098,0,1
-0.2250106,0.0361061,-0.11229226,0,1
-0.1880551,0.048561092,-0.06815574,0,1
-0.1600019,-0.011844645,-0.05532992,0,1
-0.13932033,-0.0359192,-0.052380797,0,1
-0.08026259,0.004916195,0.041031636,0,1
-0.021704845,0.022858629,0.06967593,0,1
0.17990698,-0.010242465,-0.033931576,0,1
0.2519004,-0.023884797,-0.19651014,0,1
0.23750734,0.002035112,-0.27654204,0,1
0.32922587,-0.009712255,-0.33194366,0,1
0.3098424,0.07026765,-0.33815324,0,1
0.075531095,0.24822901,-0.3830964,0,1
-0.22759731,0.12196251,-0.39957896,0,1
-0.31529623,-0.006392531,-0.39029092,0,1
-0.3079569,-0.19820698,-0.37470627,0,1
-0.26376444,-0.19148166,-0.34424573,0,1
-0.2079528,-0.042163882,-0.21968944,0,1
-0.13224187,0.09953307,-0.16969831,0,1
-0.08914861,0.17283534,-0.20467478,0,1
-0.1115926,0.3023577,-0.07887386,0,1
-0.15186448,0.31213954,0.07203119,0,1
-0.18002754,0.17768866,0.4142268,0,1
-0.1602969,-0.13151832,0.4987338,0,1
-0.1678172,-0.30746457,0.49675295,0,1
-0.4327262,-0.4688282,0.59132147,0,1
-0.5010415,-0.46780205,0.61087155,0,1
-0.4345511,-0.43147087,0.5510535,0,1
-0.5765895,-0.10781762,0.43481442,0,1
-0.6059253,0.062520064,0.34732237,0,1
-0.49765453,0.39676577,0.11698446,0,1
-0.47065827,0.46764284,0.09540902,0,1
-0.3430133,0.13485149,0.1856257,0,1
-0.15509772,-0.24138165,0.2377438,0,1
-0.077661544,-0.23858833,0.26437634,0,1
-0.040193293,-0.004055949,0.2502063,0,1
-0.021678142,0.054122005,0.21298032,0,1
-0.021463912,0.14431193,0.18655473,0,1
-0.06022238,0.104502715,0.17803551,0,1
-0.076195315,0.002250692,0.18306972,0,1
-0.14064379,-0.12344647,0.102138564,0,1
-0.15763262,-0.11571218,0.03241627,0,1
-0.111268796,-0.025457388,0.005152977,0,1
-0.10234029,-0.10290434,-0.024296435,0,1
-0.08820264,-0.21376136,-0.022725169,0,1
-0.03864715,-0.17771436,-0.00442855,0,1
-0.008370797,-0.065696724,-0.000141638,0,1
0.061973363,0.004909514,-0.02163646,0,1
0.031356633,0.006958011,0.017005086,0,1
-0.05788803,0.07857228,0.008913473,0,1
-0.040735222,0.08204651,-0.07157427,0,1
0.025951214,0.002939216,-0.07745374,0,1
0.017168052,-0.20795348,-0.028212354,0,1
0.033294052,-0.18518928,-0.105905354,0,1
0.06550533,-0.12616065,-0.16346474,0,1
-0.002838818,0.0853567,-0.17405683,0,1
-0.040666,0.14230251,-0.14639568,0,1
-0.07146152,0.019183155,-0.045864362,0,1
-0.091113284,-0.07751371,-0.028730623,0,1
-0.103735775,-0.117940925,-0.03031826,0,1
-0.17168239,-0.0750742,0.007557833,0,1
-0.19022498,-0.000135425,-0.001225052,0,1
-0.16044447,0.2175665,-0.04503276,0,1
-0.057917807,0.11156941,-0.064490154,0,1
-0.030491116,0.03911209,-0.032673664,0,1
-0.01191639,-0.000843044,0.03476079,0,1
0.016269382,-0.031167025,0.06911328,0,1
0.106312566,-0.06326579,0.13576019,0,1
0.1339444,-0.041547764,0.10387899,0,1
0.1833493,-0.08487987,0.122745104,0,1
0.038951185,-0.20159534,0.034549866,0,1
-0.07161194,-0.15857412,-0.025586147,0,1
-0.13365307,-0.12741569,-0.0950597,0,1
-0.13927916,-0.1653004,-0.15769483,0,1
-0.15146478,-0.07381061,-0.15914732,0,1
-0.1642835,0.19357778,-0.089959085,0,1
-0.15263292,0.1592331,-0.16118112,0,1
-0.1841675,-0.033367205,-0.36892077,0,1
-0.18702367,0.101208664,-0.26561826,0,1
-0.2109587,0.16213511,-0.20527335,0,1
-0.24602634,0.17021464,-0.209512,0,1
-0.26265,0.16543198,-0.15662977,0,1
-0.21488133,-0.11643697,0.052931204,0,1
0.15025243,-0.43525788,0.717614,0,1
0.2666609,-0.5146217,1.0722896,0,1
0.31447315,-0.35937488,1.1274991,0,1
0.33362955,-0.22449198,0.9990956,0,1
0.103257775,-0.36810675,0.8984485,0,1
-0.40889236,-0.6112461,0.5443536,0,1
-0.44778183,-0.44986632,0.21772361,0,1
-0.14949465,0.66225916,-0.007880169,0,1
0.009586381,0.99015915,-0.009974635,0,1
0.10408216,0.7292405,-0.21477045,0,1
0.030972235,0.2396402,-0.49639082,0,1
0.001529068,-0.07713515,-0.4905481,0,1
0.2161001,-0.22241692,-0.19446196,0,1
0.4293657,-0.19156173,-0.10525372,0,1
0.68179363,0.10091498,-0.009467098,0,1
0.48022795,-0.11038878,-0.11335005,0,1
0.197304,-0.26971918,-0.18135685,0,1
-0.11859569,-0.17613989,-0.33385783,0,1
0.000312246,-0.15055853,-0.41340414,0,1
0.5042043,-0.037322085,-0.36236826,0,1
0.4807301,0.1079378,-0.28941637,0,1
0.4195896,0.06378172,-0.20807461,0,1
0.5439075,-0.19037251,-0.13237245,0,1
0.657998,-0.24762252,-0.1411995,0,1
0.5229091,-0.006567969,-0.17396376,0,1
0.06397737,0.12929058,-0.19444486,0,1
-0.14787029,0.04329966,-0.14362095,0,1
-0.38636732,-0.087138206,-0.11685049,0,1
-0.4057941,-0.08292487,-0.15209548,0,1
-0.30996248,-0.061894447,-0.15500608,0,1
-0.22740372,0.0372734,-0.05578058,0,1
-0.21038418,0.038435936,-0.0217533,0,1
-0.21648581,0.005767817,-0.02658366,0,1
-0.25902128,-0.006132135,-0.034826905,0,1
-0.31695816,-0.022964492,-0.0651239,0,1
-0.34115797,0.003619183,-0.056343105,0,1
-0.3674004,0.006162633,-0.049865007,0,1
-0.34992647,0.008157728,0.01770202,0,1
-0.2996565,0.013876921,0.06505258,0,1
-0.18972248,-0.00560283,0.08110471,0,1
-0.05396729,-0.024459835,0.076453485,0,1
-0.027676433,-0.003777497,0.06482333,0,1
-0.08229069,0.04443456,0.081961736,0,1
-0.09411535,0.034868255,0.10179772,0,1
-0.070705846,-0.016224854,0.08652967,0,1
-0.07017049,-0.017530432,0.09500291,0,1
-0.075183794,-0.009489051,0.08818337,0,1
-0.07434032,-0.044584274,0.05281059,0,1
-0.06556323,-0.06331635,0.031636775,0,1
-0.08376221,-0.0298481,0.029570548,0,1
-0.10961283,0.008089068,0.030050622,0,1
-0.10558966,0.011025429,0.004546036,0,1
-0.056485888,0.01695442,-0.020273874,0,1
-0.013796439,0.022087097,-0.010227524,0,1
0.020211658,-0.020460127,0.027319402,0,1
-0.004375795,-0.056141853,0.05058323,0,1
-0.03121084,-0.0465765,0.04204842,0,1
-0.06735718,-0.015402796,0.008184744,0,1
-0.06015873,-0.010334016,0.00901266,0,1
-0.023189833,-0.014995577,0.003938613,0,1
-0.011536978,-0.012032513,-0.016085876,0,1
0.004264898,-0.017722132,-0.000903259,0,1
0.04961686,-0.026729584,0.020889442,0,1
0.045480456,-0.013972281,0.02232806,0,1
0.03589035,-0.031744003,0.030411186,0,1
0.018188432,-0.055110935,0.028104708,0,1
0.009856394,-0.041126255,0.00644467,0,1
-0.009730313,-0.001378058,0.011694795,0,1
-0.032136858,0.011122709,0.04680292,0,1
-0.06961712,-0.01788425,0.05905379,0,1
-0.04626713,-0.057065014,0.03221556,0,1
-0.01597146,-0.055227283,0.031793028,0,1
0.010153065,-0.029454231,0.027675616,0,1
0.010651335,-0.027968405,0.045753617,0,1
0.007699598,-0.022723192,0.06491496,0,1
-0.01080134,-0.025540352,0.026767815,0,1
-0.009621864,-0.018523216,0.014987333,0,1
-0.006739416,-0.025726318,0.027183818,0,1
-0.022119142,-0.025009157,0.023043443,0,1
-0.015619561,0.01714516,0.017878894,0,1
-0.00700998,-0.068765655,-0.06248631,0,1
-0.002656756,-0.07619573,-0.08476239,0,1
0.00336304,-0.046504036,-0.08232936,0,1
0.007859713,-0.03569127,-0.045041166,0,1
-0.005198474,-0.045718197,0.007609065,0,1
-0.0150271,-0.06578733,-0.033271737,0,1
0.000709749,-0.061961185,-0.03562359,0,1
0.031830665,-0.047218334,-0.026589295,0,1
0.026642606,-0.039141662,-0.03204348,0,1
-0.015016599,-0.030819898,-0.016287807,0,1
-0.04459892,-0.019818308,0.010861895,0,1
-0.036092483,-0.01421261,0.004891653,0,1
0.03203401,-0.03681374,0.009892724,0,1
0.041646164,-0.04392433,0.030657204,0,1
0.019212484,-0.030169487,0.036199436,0,1
0.029662695,-0.003425599,-0.008951953,0,1
0.022692941,-0.015610698,-0.009888802,0,1
-0.00115144,-0.0648079,0.010992088,0,1
-0.02118224,-0.061779983,-0.011919819,0,1
-0.05180064,-0.03342343,-0.034643717,0,1
-0.032483757,-0.043756492,-0.013935824,0,1
-0.01845184,-0.03771115,-0.02913589,0,1
-0.004952904,-0.02562619,-0.023586828,0,1
-0.003808571,-0.018342974,-0.004657661,0,1
0.001039246,-0.025787352,0.045462392,0,1
0.03133569,-0.054185875,-0.007767506,0,1
0.04325616,-0.053768173,-0.05555058,0,1
0.0675309,-0.06580354,-0.04231799,0,1
0.07067657,-0.08514405,-0.02272618,0,1
-0.022590678,-0.08647538,-0.019818725,0,1
-0.07607314,-0.025630008,-0.057541627,0,1
-0.071298726,-0.008321771,-0.059153985,0,1
-0.07071304,-0.012021071,-0.030505946,0,1
-0.07275403,-0.020136839,-0.020086238,0,1
-0.089380726,-0.024949085,-0.047784626,0,1
-0.10764567,-0.02532006,-0.020404713,0,1
-0.11218452,-0.020620352,-0.019610545,0,1
-0.1595286,0.007518762,-0.041575003,0,1
-0.19708309,0.03752994,-0.052851748,0,1
-0.25867862,0.05354118,-0.050869603,0,1
-0.28934646,-0.000393867,0.03668075,0,1
-0.26017442,-0.03345871,0.07768196,0,1
-0.11409454,-0.046749108,0.10451564,0,1
-0.056700923,-0.029605858,0.09931519,0,1
0.005069853,0.005104074,0.07099194,0,1
0.00742355,0.014019023,0.07309977,0,1
-0.024124054,-0.010669699,0.087647356,0,1
-0.022340402,-0.019021027,0.077550694,0,1
-0.017506033,-0.001900666,0.05934638,0,1
-0.063230224,0.008528712,0.02095568,0,1
-0.0795931,-0.041495327,0.013805076,0,1
-0.0797439,-0.05246449,0.03532593,0,1
0.068496004,-0.09155844,0.15247175,0,1
0.2642945,-0.13738821,0.18463126,0,1
0.7325529,-0.2728949,0.00985754,0,1
1.1232568,-0.16686444,-0.33434454,0,1
1.3057756,-0.16918188,-0.49660394,0,1
1.5044366,-0.28280556,-0.857559,0,1
1.332257,-0.11566077,-0.9392425,0,1
0.68695796,0.35157582,-0.70801014,0,1
0.89325345,-0.06801236,-1.0454433,0,1
1.3803326,-0.50213933,-1.4481175,0,1
2.0823112,-0.6816218,-1.9130918,0,1
1.967704,-0.41095284,-1.955753,0,1
1.0377163,0.2062491,-1.5417061,0,1
-0.44097131,0.6895094,-0.69802827,0,1
-1.2289183,0.80922323,-0.2260566,0,1
-1.7659374,0.7087404,1.053205,0,1
-1.3256114,0.7708066,1.5771528,0,1
-0.24900435,1.4661419,1.5281293,0,1
-0.1985889,1.1368849,0.9934911,0,1
-0.5346393,0.31702438,1.0478812,0,1
-0.71228373,-1.1998177,1.4366852,0,1
-0.38868964,-1.6733533,1.3770014,0,1
0.49294755,-1.7482988,0.8425414,0,1
0.8068772,-1.0270063,0.38024384,0,1
0.89931065,-0.703578,0.28994587,0,1
1.5998156,-0.29255006,0.19697201,0,1
2.1418302,-0.2818098,0.04299667,0,1
2.743165,-0.57124627,-1.0313821,0,1
1.8604095,-0.22997588,-1.4776143,0,1
1.0164036,0.3705558,-1.0530435,0,1
0.6160852,1.432194,0.76315993,0,1
0.84874797,1.7843146,1.496389,0,1
0.17318067,2.6266284,1.1212759,0,1
-1.2219932,2.672211,-0.13159144,0,1
-1.580394,2.2318404,0.050110873,0,1
-1.5859789,-0.18476099,0.774681,0,1
-1.7510685,-1.6964486,0.50586325,0,1
-2.2936518,-2.182512,-0.71123254,0,1
-2.274411,-1.0955689,-0.46573317,0,1
-2.0625896,-1.1600181,0.11635674,0,1
-1.7112978,-0.9798413,0.68210065,0,1
-1.5330496,-0.6682787,0.6691262,0,1
-0.98375386,-0.39330584,0.19027655,0,1
-0.4246211,-0.60725707,-0.71137255,0,1
-0.22186483,-0.6281807,-1.0887372,0,1
0.13114326,-0.4429104,-1.2465298,0,1
0.19742848,-0.42967147,-0.94762534,0,1
0.056390494,-0.4850789,-0.24822363,0,1
-0.04851646,-0.31275374,-0.19725437,0,1
-0.0923827,-0.12247282,-0.35200837,0,1
0.3163967,0.32776925,-0.63860387,0,1
0.59886736,0.4664888,-0.9436622,0,1
1.2877024,0.5098246,-2.0941963,0,1
1.8439105,0.65370625,-3.0144725,0,1
1.4677894,1.0757587,-3.1076925,0,1
-0.7907504,1.8302649,-2.8650217,0,1
-1.6483136,1.447174,-2.1841786,0,1
-1.823446,0.87212867,0.68443346,0,1
-0.77244467,0.8472608,1.5208217,0,1
-0.42757377,0.5632859,0.27947658,0,1
-0.56534106,-0.42819726,-2.3585086,0,1
-1.0420365,-0.7995171,-2.389248,0,1
-1.7845044,-0.8928311,-0.85043263,0,1
-1.711084,-0.3561211,0.1763896,0,1
-1.5420264,-0.146801,0.31200477,0,1
-1.5203242,-0.44131288,0.030906938,0,1
-1.5545633,-0.7124063,-0.13101937,0,1
-1.6055443,-0.9554254,0.03376377,0,1
-1.4037305,-0.7222681,0.6821874,0,1
-1.0990534,-0.6364183,1.1198201,0,1
-0.36555898,-0.97673887,1.4058259,0,1
-0.17356206,-1.5718642,1.5294766,0,1
0.6848068,-1.9447654,2.5032408,0,1
1.6843125,0.41568902,3.6935563,0,1
1.82722,1.8768384,4.093894,0,1
0.96573114,2.311568,3.6390672,0,1
-0.6404966,3.0844965,3.650356,0,1
-2.8220546,2.4053063,3.25942,0,1
-1.5857207,-0.8891419,2.267407,0,1
-0.8529098,-1.9589138,1.8459159,0,1
-0.16893847,-2.0334268,1.0758157,0,1
-0.12167239,-1.1089706,1.0272757,0,1
-0.08273232,1.0646719,1.6479506,0,1
0.2294368,0.8629478,2.1544955,0,1
0.52510947,0.48550257,2.213423,0,1
1.110709,-0.046093658,2.2783027,0,1
1.4380765,-0.30057785,2.2687633,0,1
1.9230266,-0.28724748,1.5658659,0,1
2.4877307,-0.019726697,0.19160673,0,1
2.579807,-0.08657364,-0.55075955,0,1
2.1950576,-0.076282635,-1.3533856,0,1
2.0929196,0.04707798,-1.6151541,0,1
1.005857,-0.31716478,-2.8402174,0,1
-0.8802367,0.09017051,-2.9010117,0,1
-1.4770701,0.6122444,-1.6725477,0,1
-2.1755414,0.9675656,-0.005552147,0,1
-2.119446,0.8757726,0.14370081,0,1
-1.8438987,0.061818104,-0.010714032,0,1
-1.938005,-0.9459316,-0.30255908,0,1
-1.9663917,-1.3012974,-0.32996663,0,1
-1.3091663,-1.6305907,0.24233,0,1
-0.578068,-1.7421687,0.32829273,0,1
0.25004384,-1.06094,-0.6766151,0,1
0.41042602,0.5303285,-2.4636238,0,1
0.48787847,1.5052079,-2.8824735,0,1
0.60883445,1.7999172,-1.8259313,0,1
0.5953591,0.92210966,-0.7862181,0,1
0.50653136,-0.71775526,0.705946,0,1
0.3294748,-0.47007748,0.6587699,0,1
0.27186498,-0.08176898,0.10584474,0,1
0.16207528,0.27754202,-0.91589904,0,1
0.16171673,0.2003993,-1.1001453,0,1
0.4474522,-0.12828456,-0.84454477,0,1
0.5417232,-0.29559812,-0.4708073,0,1
0.49173725,-0.2589627,-0.41069975,0,1
0.41068447,0.038293786,-0.51262933,0,1
0.34558296,0.12679,-0.58822536,0,1
0.28058714,-0.18744668,-0.6065875,0,1
0.326541,-0.51908505,-0.5503964,0,1
0.39234254,-0.57994473,-0.4462731,0,1
0.47917,-0.4483186,-0.49123487,0,1
0.42606607,-0.45343602,-0.6081283,0,1
0.2621882,-0.66040814,-0.57909876,0,1
0.4212846,-0.6997272,-0.30779013,0,1
0.54889226,-0.81469834,-0.29568434,0,1
0.49957556,-1.158723,-0.28424397,0,1
0.53806204,-1.1704551,-0.27236855,0,1
0.5520966,-1.2393466,-0.4216281,1,0
0.1225129,-1.7278389,-0.72777593,1,0
0.0740996,-1.9020122,-0.8556463,1,0
-0.2181577,-2.3606412,-0.43588424,1,0
-0.15539292,-2.2679374,-0.2314914,1,0
0.5137648,-2.4266307,-0.3221817,1,0
0.23411307,-3.2837038,0.024758182,1,0
0.026764669,-3.323676,-0.15759319,1,0
0.046992324,-3.016777,-0.4376334,1,0
0.018915165,-2.9949367,-0.08049761,1,0
0.00654235,-3.5530567,-0.03044524,1,0
-0.002008475,-3.798298,-0.63493776,1,0
0.007248141,-3.7209182,-0.79153335,1,0
-0.076632865,-3.4713755,-0.64556426,1,0
0.07989965,-3.395184,-0.84377074,1,0
0.8551358,-4.5667562,-1.6515014,1,0
0.21901372,-5.400206,-1.2801217,1,0
-1.0561965,-4.7353096,-0.62327194,1,0
-3.1439445,5.370284,3.9455082,1,0
-2.0326352,19.265627,6.885366,1,0
2.4821482,26.952784,9.093247,1,0
-0.025408298,11.475802,4.177192,1,0
-0.18076134,7.827933,2.4018388,1,0
-1.837865,-2.6510253,-2.494126,1,0
-2.2239335,-6.974772,-3.7582433,1,0
1.721556,-9.194341,-1.1892354,1,0
2.0646253,-4.40195,2.6793685,1,0
1.180366,-2.996692,3.4200695,1,0
0.061328053,-1.3347327,3.8717787,1,0
-0.69370914,1.1198862,4.6248503,1,0
-2.5759888,7.3389955,6.0522575,1,0
-1.9957751,5.179002,4.2037244,1,0
-1.1635308,2.394713,1.9879125,1,0
0.40177542,-3.6798654,-0.4545662,1,0
-0.0703768,-5.761401,-0.25755134,1,0
-1.8042414,-5.9565625,1.434762,1,0
-1.3235139,-3.2198164,1.8351339,1,0
-0.7110155,-0.76150507,1.4352611,1,0
-0.6673272,2.3785787,1.4233977,1,0
-1.5780087,2.7241845,1.885333,1,0
-1.7526853,4.2411056,1.0496494,1,0
-1.5925822,3.247375,0.5549577,1,0
-1.99564,1.8120426,1.1503286,1,0
-1.3497586,-1.2847633,1.350134,1,0
-0.7034186,-1.9126998,0.8603723,1,0
0.3972525,-1.5526973,0.8539653,1,0
1.3224354,-0.49175742,-0.00356692,1,0
1.2668573,0.038321484,-0.2744121,1,0
0.55929345,0.62956053,-0.19143619,1,0
0.36167935,0.27653977,-0.5619319,1,0
0.24267143,-0.9202712,-1.4060888,1,0
0.4631476,-1.1571143,-1.195238,1,0
0.51253915,-0.89990157,-0.7832887,1,0
0.24398132,-0.21708685,-0.2669629,1,0
0.03774021,0.121113785,-0.05644481,1,0
-0.24116391,1.0112154,0.60851675,1,0
-0.26923242,1.3830674,0.8142568,1,0
-0.19229683,1.0516589,0.7312387,1,0
-0.1540232,-0.10490698,0.5727756,1,0
-0.22366896,-0.65705967,0.56028754,1,0
-0.47618377,-1.2418098,0.74303675,1,0
-0.53781605,-0.8959036,0.8463474,1,0
-0.4359995,-0.4096832,0.75442874,1,0
0.070975795,0.59515584,0.29510814,1,0
0.3839639,0.81732,-0.05609105,1,0
0.73086715,0.60081005,-0.6231488,1,0
0.36117005,-0.3810054,-0.64058954,1,0
-0.072579056,-0.76762885,-0.4207295,1,0
-0.6293041,-0.522646,0.17826667,0,1
-0.5249549,-0.15113544,0.22489883,0,1
-0.15384416,0.3611555,-0.113491766,0,1
-0.13862574,0.16623877,-0.21973644,0,1
-0.12979446,0.051388733,-0.106931195,0,1
0.16852659,-0.00307559,0.06698797,0,1
0.17887613,-0.09685706,0.18981503,0,1
0.007051274,-0.14245792,0.44543797,0,1
0.09488766,0.0596848,0.3313885,0,1
0.104006186,0.13508897,0.2590172,0,1
-0.020765904,0.11446671,0.2619497,0,1
-0.052027963,0.045914683,0.2459498,0,1
-0.048754446,-0.101065636,0.11155367,0,1
-0.1303827,0.030077942,0.041603666,0,1
-0.11681202,0.05141831,-0.013891689,0,1
-0.040456377,-0.01386072,-0.12588382,0,1
-0.058376797,-0.012087837,-0.10358806,0,1
-0.06595638,0.06209183,-0.014420757,0,1
0.0992235,0.001386636,-0.06288191,0,1
0.06647976,-0.040659916,-0.068799905,0,1
-0.04688467,0.06512642,-0.04379479,0,1
0.023115903,0.039498325,-0.07491318,0,1
0.118643686,-0.12830068,-0.062988214,0,1
0.010653885,-0.071169846,0.1544409,0,1
0.038975727,-0.059418663,0.18032071,0,1
0.13601716,0.049532905,0.05438832,0,1
0.12774757,0.11011221,0.028366907,0,1
0.04820909,0.06927207,0.18281274,0,1
-0.05298602,-0.20689678,0.24905397,0,1
-0.1051239,-0.22287178,0.22404568,0,1
-0.1493924,0.11979393,0.23703219,0,1
-0.15537147,0.2608195,0.22279721,0,1
-0.1283707,0.26165965,0.09330836,0,1
-0.025304347,0.07656669,-0.13378373,0,1
0.050189137,-0.03584197,-0.2314505,0,1
0.12516175,-0.20406348,-0.29350126,0,1
0.1478652,-0.27363497,-0.2614272,0,1
0.0824811,-0.269393,-0.1324029,0,1
-0.053167578,-0.04435252,0.13599706,0,1
-0.08918853,0.04559043,0.21975,0,1
-0.07613847,0.12644866,0.15303184,0,1
-0.027220335,0.1250563,0.08131721,0,1
0.08481068,0.041749008,0.022811335,0,1
0.2207708,0.024923299,-0.27551952,0,1
0.30986172,0.012627523,-0.7106906,0,1
0.22091945,-0.79957324,-1.3635023,0,1
-0.07261812,-1.8722528,-1.3181345,0,1
-0.44679877,-2.751487,-0.48225704,0,1
-0.033580042,0.43250388,1.0599077,0,1
0.1633018,1.1502193,1.6442567,0,1
-0.16233653,0.09093687,1.7464238,0,1
-0.3051811,-0.2697953,1.4116225,0,1
0.13230833,0.591037,0.7641977,0,1
0.73566526,1.4742137,0.40352485,0,1
0.63721466,1.4627726,0.5399884,0,1
0.26695052,1.6402191,1.4016397,0,1
0.11597251,1.6294208,1.6431651,0,1
-0.4976297,0.702655,1.1401696,0,1
-0.38186228,-0.015585893,0.117204174,0,1
-0.42639554,-0.23740965,-0.18975726,0,1
-0.59624344,-0.04582502,-0.015194071,0,1
-0.2714048,0.12645057,0.18799812,0,1
-0.1280227,0.004645326,-0.16854157,0,1
-0.3954949,0.16824056,0.02497366,0,1
-0.23751444,0.16972831,0.19163533,0,1
-0.28347978,-0.14575393,-0.42563757,0,1
-0.34956706,-0.26243314,-0.49325553,0,1
-0.17128406,-0.4316016,-0.14677036,0,1
-0.06191817,-0.44409087,0.33796751,0,1
0.15776753,-0.3720636,0.47272822,0,1
0.003574224,-0.4443331,0.17678095,0,1
-0.10482782,-0.58647925,0.08952225,0,1
-0.20630962,-0.5433665,-0.16632326,0,1
-0.4721822,-0.021573145,-0.5934425,0,1
-0.38048518,0.26150984,-0.6106418,0,1
0.09273763,1.1134406,0.29652774,0,1
-0.24923861,1.3708851,0.9986942,0,1
-1.1632358,1.9212459,1.5926298,0,1
-0.6186774,1.6347005,4.1667113,0,1
-0.19324332,0.8436268,5.4178944,0,1
-0.2403568,0.8441436,5.0744767,0,1
-0.11590776,0.9020153,4.0055966,0,1
-0.30639726,0.39602014,1.3606398,0,1
-0.23878217,-0.008858844,-1.3369929,0,1
0.2025276,-0.1539433,-1.941455,0,1
0.38714218,-0.7714656,-1.3991672,0,1
0.005770207,-1.3321164,-0.8720991,0,1
-0.48747528,-1.7524292,-0.35608843,0,1
-0.012549575,-1.2433778,0.12274614,0,1
0.3733378,-0.6786871,0.53030884,0,1
0.1854795,0.45890528,0.07970462,0,1
-0.14131224,0.58555126,-0.507926,0,1
0.16566643,0.45932487,-0.20067246,0,1
0.8499238,0.8399154,0.03224023,0,1
0.8337269,1.4782325,-0.56364983,0,1
0.89199954,2.300149,-1.4934418,0,1
0.8339829,2.3903847,-1.5583405,0,1
0.86431366,2.688882,-0.9025249,0,1
0.67100686,2.654401,-0.81959105,0,1
0.49088177,2.3785431,-0.6044864,0,1
0.21951476,1.5311644,-0.05034888,0,1
0.10769382,0.9522048,0.18377648,0,1
-0.09850916,-0.045529347,0.21024555,0,1
-0.4648281,-0.49403968,-0.6656678,0,1
-0.51525366,-0.48090285,-0.8233671,0,1
-0.26282504,-0.4188262,-0.29209733,0,1
-0.15384,-0.49695212,0.06291099,0,1
-0.22780868,-0.47410393,0.48266256,0,1
-0.2864246,-0.38964272,0.65724677,0,1
-0.26924497,-0.41117,0.62548876,0,1
-0.2539118,-0.55502415,0.50763255,0,1
-0.2551982,-0.6676836,0.45453605,0,1
-0.19108532,-1.1970073,0.5087277,0,1
-0.010041505,-1.7411548,0.6450793,0,1
-0.009864882,-1.9136168,0.53048825,0,1
-0.17416142,-1.9065578,0.08371269,0,1
-0.16734247,-1.7407897,-0.09721893,0,1
-0.29210308,-1.5339959,-0.34516823,0,1
-0.46922648,-1.3227626,-0.09074452,0,1
-0.3882972,-1.2331039,0.070733,0,1
-0.3429635,-1.3300649,0.4047225,0,1
-0.3793532,-1.3198224,0.53690296,0,1
-0.15715896,-1.3514243,0.43260416,0,1
-0.12757242,-0.8320104,-0.23052843,0,1
-0.13631037,-0.39794934,-0.5286416,0,1
-0.21794704,0.08173266,-0.8004918,0,1
-0.31159887,0.003621018,-0.66841936,0,1
-0.25398597,-0.78640753,0.31063795,0,1
0.16540843,-1.1375675,0.9394105,0,1
0.31144577,-0.9140644,0.79151195,0,1
0.23236309,-0.38536656,-0.4954769,0,1
0.095685676,-0.29134384,-0.9264667,0,1
0.032445394,-0.22149192,-0.5776057,0,1
0.17875373,-0.62788594,-0.27663732,0,1
0.2794896,-0.67477614,-0.18755563,0,1
0.5233718,0.2094431,-0.19362548,0,1
0.49451253,0.6615858,-0.37240708,0,1
-0.000651456,0.9032813,-0.6360726,0,1
-0.17031,0.3886576,-0.19181426,0,1
-0.123380855,0.037195213,0.050921578,0,1
-0.071370155,-0.45313743,0.19103825,0,1
-0.08700187,-0.44130138,0.13644253,0,1
-0.10191546,-0.15095617,0.003103247,0,1
0.020635769,0.07142068,0.014341423,0,1
0.07229333,0.20898154,-0.017753819,0,1
0.046764657,0.3545456,-0.14891906,0,1
-0.03431783,0.27580833,-0.14306739,0,1
-0.26415616,0.11623385,0.079707265,0,1
-0.30459413,-0.1684408,0.30950162,0,1
-0.2863916,-0.2553997,0.32960376,0,1
-0.29191476,-0.08815859,0.22234744,0,1
-0.2808047,0.02743437,0.17722723,0,1
-0.18504636,0.056441322,0.098577805,0,1
-0.1325547,0.07635117,0.006820317,0,1
-0.1721108,0.07275868,0.003075543,0,1
-0.2414193,0.000165006,0.19660307,0,1
-0.21435547,-0.029092766,0.2398139,0,1
-0.14697818,-0.022313107,0.12588902,0,1
-0.08563304,0.006442079,0.0814666,0,1
-0.03226528,-0.025295252,0.0747153,0,1
0.06539588,-0.0866747,-0.038380142,0,1
0.12552184,-0.102933906,-0.086742185,0,1
0.0814995,-0.048459064,-0.055789057,0,1
-0.017107554,-0.07484912,0.122151084,0,1
-0.022914771,-0.052295666,0.22165439,0,1
-0.013165835,0.003335987,0.28755787,0,1
-0.0709856,0.021904983,0.3145439,0,1
-0.08560877,-0.04700657,0.3823351,0,1
-0.08255342,-0.000945031,0.5165786,0,1
-0.10835336,0.0432902,0.51764035,0,1
-0.24061416,-0.025106402,0.29920858,0,1
-0.2548636,-0.051108338,0.27734858,0,1
-0.2777727,-0.1159706,0.30326942,0,1
-0.25704756,-0.11431693,0.18982652,0,1
-0.17730984,-0.07077026,0.08765944,0,1
-0.05689308,-0.071218506,-0.079373226,0,1
-0.059002787,-0.06360533,-0.13536017,0,1
-0.053239632,-0.09733679,-0.031625465,0,1
-0.16530614,-0.12765792,-0.09159386,0,1
-0.12848414,-0.07577897,-0.015348279,0,1
-0.088401504,-0.020723345,0.003047861,0,1
-0.013870288,-0.01888753,-0.055262372,0,1
0.29708767,-0.038024936,-0.2812553,0,1
0.33637285,0.10310646,-0.48561552,0,1
0.32736784,0.08994955,-0.5915104,0,1
0.3438535,0.004007282,-0.53211653,0,1
0.31875208,-0.006305743,-0.43561143,0,1
0.22709931,-0.006777794,-0.27967578,0,1
0.20267636,0.019091591,-0.16911545,0,1
0.2537058,0.027688975,-0.11158145,0,1
0.225674,-0.030232431,-0.008370791,0,1
0.15921997,-0.07074547,0.062937506,0,1
-0.012925066,-0.14699648,0.26447985,0,1
-0.19712457,-0.05129144,0.30588177,0,1
-0.25845712,-0.000275581,0.2954213,0,1
-0.43713686,0.046167385,0.12295992,0,1
-0.52793926,-0.064056404,0.04431492,0,1
-0.6485778,-0.21870044,0.04019028,0,1
-0.6820825,-0.19464876,0.17911965,0,1
-0.6510236,-0.1448822,0.19500257,0,1
-0.5057261,-0.075984955,0.101772584,0,1
-0.43318802,0.027259834,0.08190579,0,1
-0.46495256,0.17977144,0.007102578,0,1
-0.4461064,0.015396084,-0.25589386,0,1
-0.3885098,-0.023777058,-0.3497573,0,1
-0.24360828,-0.011461307,-0.3811569,0,1
-0.19858453,0.04656978,-0.39328238,0,1
-0.2522115,0.057293847,-0.40262246,0,1
-0.101482324,0.042652097,-0.31833556,0,1
0.05166464,0.20176312,-0.45243326,0,1
0.34239298,0.4810399,-1.3124645,0,1
0.3778196,0.48196968,-1.7859528,0,1
0.038920715,0.033400316,-1.8852888,0,1
-0.8904523,-0.7747175,-0.5531716,0,1
-1.13457,-1.1590577,0.2962234,0,1
-1.3419269,-1.7626516,1.4276448,0,1
-1.4148731,-1.4307795,1.4638488,0,1
-0.4526425,-0.33118537,-0.011834847,0,1
0.13731667,1.2622691,-0.36731336,0,1
0.19669245,2.4297163,-0.09856732,0,1
0.89461017,1.5835669,-0.14808767,0,1
0.95882577,-0.18245228,-0.5565554,0,1
1.4511071,-1.0876962,-0.28824443,0,1
2.0409212,-0.4643163,0.6571978,0,1
2.0389144,-0.19486131,0.858,0,1
1.964238,0.3287889,0.83003753,0,1
1.7770077,0.40672895,0.9520458,0,1
0.8451532,0.2287571,1.2810053,0,1
0.44802117,-0.06436334,1.2102833,0,1
0.4071052,-0.03778251,1.3299565,0,1
0.14172153,0.1011288,1.715803,0,1
-0.08817837,0.2240775,1.9784685,0,1
-0.52572453,0.35405096,2.4560654,0,1
-0.936028,0.26509026,2.134174,0,1
-0.9643556,0.37453294,1.9679394,0,1
-1.3524501,0.22382662,1.6418252,0,1
-1.8272828,-0.20164387,1.046668,0,1
-2.3887687,-1.0146372,-0.7518568,0,1
-1.448313,-0.8925384,-1.9562935,0,1
-0.99516976,-0.7116025,-1.9313579,0,1
-0.8375772,-0.19680719,-2.0441406,0,1
-0.70402443,0.16387531,-2.2952352,0,1
0.17738998,0.46606997,-2.3954961,0,1
1.3880545,0.15272412,-1.6017777,0,1
1.9267302,-0.082342245,-0.9920238,0,1
2.2958188,-0.86716664,-0.18190421,0,1
2.0261838,-1.0832759,0.04173701,0,1
0.53514683,0.117637694,0.3444815,0,1
-0.7824032,0.7642384,-0.54780525,0,1
-1.1969575,0.36449325,-1.1554266,0,1
-2.1354485,-0.44656783,-1.8321031,0,1
-2.4229116,-0.9657701,-1.8518789,0,1
-1.8577645,-0.93888503,-1.423786,0,1
-0.86576545,0.26868907,-0.78507,0,1
-0.7402355,0.47794816,-0.7592844,0,1
-0.6476631,-0.021982353,-1.258289,0,1
-0.67049056,-0.10044213,-1.4114106,0,1
-1.0844185,-0.7743285,-1.0562756,0,1
-0.8546192,-1.9655411,-0.06145001,0,1
-0.6297538,-1.9012663,0.26652688,0,1
-0.50332564,-1.2200357,0.50993985,0,1
-0.17473678,-1.2143441,0.48138216,0,1
0.56583184,-1.024623,-0.34506103,0,1
0.3366831,-0.78779155,-1.6388614,1,0
0.17223886,-0.846043,-2.0594087,1,0
-0.33052996,-0.6243632,-1.5956731,1,0
-0.26610976,-0.49647063,-0.9516872,1,0
0.4024315,-0.2941704,-0.04403826,1,0
0.6365162,-0.775034,0.3713971,1,0
0.60635984,-1.1450797,0.21606712,1,0
0.3966294,-1.2246201,-0.5513863,1,0
0.3547061,-0.76002526,-0.7981595,1,0
0.22223406,-0.23476894,-0.43233082,1,0
0.22651708,-0.32971007,-0.29828048,1,0
0.23371258,-0.13449292,-0.31365255,1,0
-0.079530016,0.25374892,-0.07215184,1,0
-0.28189504,0.2770014,0.13975248,1,0
-0.6719485,0.77444476,0.8238869,1,0
-0.80621004,1.981194,1.6110064,1,0
-0.64843917,2.5325246,1.879403,1,0
-0.28607786,3.7143447,1.708403,1,0
-0.3286907,3.8355682,1.314673,1,0
-0.7092116,2.748462,0.2955486,1,0
-0.60680145,1.6482669,-0.61919254,1,0
-0.29539087,1.1955318,-1.0305897,1,0
0.20096272,0.052099038,-1.6837412,1,0
0.33909124,-0.7046864,-1.711373,1,0
0.5753839,-1.9425977,-1.3945415,1,0
0.69773805,-2.5179064,-0.9705072,1,0
0.657246,-2.4170578,-0.74281853,1,0
0.5128719,-1.7251924,-0.6004121,1,0
0.48740286,-1.4533951,-0.83637756,1,0
0.40722615,-1.1193326,-1.1767929,1,0
0.6024834,-1.3317941,-2.3004494,1,0
0.8781886,-1.647966,-3.273733,1,0
1.602225,-2.9636867,-4.565892,1,0
1.891835,-3.9033403,-4.9462056,1,0
1.2425438,-4.7802296,-4.063508,1,0
-0.18090215,-3.1528866,-1.2928629,1,0
-0.5757462,-2.468745,0.2791098,1,0
-1.2280526,-2.8773153,4.542084,1,0
-1.6063786,-3.227873,6.63201,1,0
-1.9983094,-2.5453246,7.6997547,1,0
-1.6241219,0.8261679,5.5296783,1,0
-1.4987028,3.0260222,6.152321,1,0
-1.0487089,10.762179,5.818314,1,0
1.227097,14.531066,2.5949075,1,0
0.66939485,9.830908,0.68530536,1,0
-7.912587,4.175945,0.49562997,1,0
-8.873458,1.0125189,-0.26829898,1,0
-0.82180285,-4.6854167,-0.61431116,1,0
-0.10100673,-4.9653335,-0.9246405,1,0
-0.027394414,-2.480706,-0.7558483,1,0
0.97653043,1.7709572,0.04402915,1,0
0.9572216,2.637849,0.48856974,1,0
-0.8500852,3.2763839,0.4145047,1,0
-1.0772582,3.0205073,0.1898674,1,0
-0.11651988,-0.69108874,-0.16431604,1,0
0.17439818,-2.897568,-0.5240946,1,0
0.22484225,-2.3944428,-0.48009664,1,0
0.60447097,-0.44641504,-0.2717914,1,0
0.7630183,0.42542937,-0.2456653,1,0
0.56346536,1.4445096,-0.36790788,1,0
0.053336192,1.1344749,-0.21549064,1,0
-0.094961695,0.49318224,-0.10061021,1,0
-0.0644822,-0.7771102,-0.053126607,1,0
0.12889118,-1.0742828,-0.07516167,1,0
0.43521726,-0.8717071,0.024854064,1,0
0.3266934,-0.11345291,0.095806584,1,0
0.23667698,0.17636874,0.13112387,1,0
0.13872817,0.32017237,0.11896776,1,0
0.08842796,0.28442863,0.04321213,1,0
-0.015228543,0.26879218,-0.088565886,1,0
-0.044470716,0.21014786,-0.18398687,1,0
-0.05002614,0.11187076,-0.17087522,1,0
-0.007376399,-0.005162254,-0.12583391,1,0
0.052015036,-0.001988423,-0.10543642,1,0
0.14398442,0.026632307,-0.05988427,1,0
0.14676195,0.06502343,-0.040876403,1,0
0.10970434,0.08073425,-0.059678923,1,0
0.08377067,0.07661723,-0.10614005,1,0
0.09042275,0.061301228,-0.104357064,1,0
0.115596615,-0.001675614,-0.079778045,1,0
0.17152049,-0.09277536,-0.053641673,1,0
0.18532045,-0.14379026,-0.05629855,1,0
0.14434612,-0.13015844,-0.037434738,1,0
0.117725514,-0.0654831,-0.029218368,1,0
0.118959665,-0.009693149,-0.031487867,1,0
0.11598683,0.01240063,-0.006880589,1,0
0.0892529,0.01523495,-0.0062089,1,0
0.053661488,-0.014438636,-0.04302518,1,0
0.0713417,-0.04310895,-0.07003362,1,0
0.07817978,-0.05839445,-0.093394056,1,0
0.089015044,-0.008021364,-0.07881551,0,1
0.113106005,0.029583925,-0.0965146,0,1
0.096663415,0.16170216,-0.18289995,0,1
0.09701809,0.21314527,-0.20022818,0,1
0.08610922,0.14106941,-0.19483767,0,1
0.044426117,0.07002352,-0.21351953,0,1
0.05591553,0.030394536,-0.19161695,0,1
0.07509097,-0.039429683,-0.13532628,0,1
0.06886135,-0.027218834,-0.10696013,0,1
0.09087226,0.013376235,-0.030580575,0,1
0.10943003,0.01742649,-0.021928433,0,1
0.110940956,0.01216507,-0.028156059,0,1
0.10652358,-0.03662206,-0.066702545,0,1
0.093824506,-0.0774212,-0.07281564,0,1
0.07994239,-0.113858245,-0.07817035,0,1
0.13262662,-0.09051801,-0.09466265,0,1
0.13645366,-0.053828258,-0.099514134,0,1
0.120697185,0.021832455,-0.12378506,0,1
0.0912844,0.049130432,-0.14219172,0,1
0.038812224,0.047530163,-0.15348943,0,1
0.03172362,0.03258037,-0.11053992,0,1
0.021623613,0.05953693,-0.10579987,0,1
0.007322485,0.042661652,-0.14294478,0,1
0.02088846,0.037116993,-0.1415065,0,1
0.03743927,0.07628917,-0.11587095,0,1
0.03734441,0.078831665,-0.116347894,0,1
0.03554236,0.050903317,-0.11150543,0,1
0.0533287,-0.023697868,-0.10159152,0,1
0.07228853,-0.04585649,-0.08831518,0,1
0.0822429,-0.042479526,-0.06450744,0,1
0.13141072,-0.026820198,-0.10652474,0,1
0.11701037,-0.016798988,-0.118712485,0,1
0.09965173,-0.0632105,-0.102976136,0,1
0.09882146,-0.06536486,-0.11649984,0,1
0.08031497,-0.038338676,-0.11692819,0,1
0.06514615,-0.012556092,-0.12386184,0,1
0.045220833,0.003131853,-0.12778087,0,1
-0.002688447,0.000878313,-0.1764047,0,1
-0.017507315,-0.03194335,-0.2230986,0,1
0.014623469,-0.012387305,-0.23181687,0,1
0.13908587,-0.3670273,-0.11220817,0,1
0.16076006,-0.56370646,-0.040838942,0,1
0.119461566,-0.49409777,-0.010921732,0,1
0.13434543,-0.2395983,-0.045639984,0,1
0.042512394,0.6996584,-0.2737802,0,1
0.16308542,1.3000051,-0.393596,0,1
0.21709609,1.0774013,-0.25878084,0,1
-0.032847546,0.80534655,-0.25870955,0,1
-0.10980282,0.9723617,-0.19976376,0,1
-0.0741627,1.8146641,0.14904761,0,1
-0.3867094,3.1283154,0.6096989,0,1
-0.19088864,3.5661445,0.9686468,0,1
0.27311862,2.4401946,1.5944996,0,1
0.54439163,2.1253505,1.7363421,0,1
1.2811348,2.5525298,2.101278,0,1
1.2067671,2.579166,0.87348616,0,1
0.8462669,1.9996761,0.5357555,0,1
0.72357136,0.8419984,1.3760927,0,1
1.0335351,0.48629504,1.7863009,0,1
0.946468,-0.51287735,1.632905,0,1
0.13282196,-1.5198146,0.7947786,0,1
-0.29969874,-2.087396,0.4469048,0,1
-1.7630392,-2.6122591,0.06916523,0,1
-2.5011008,-2.619199,0.16341889,0,1
-2.431592,-2.4274209,0.84215873,0,1
-0.3260638,-2.5855699,1.7274683,0,1
0.059551254,-2.488308,1.6048834,0,1
-1.1629394,-1.6625369,0.34781715,0,1
-2.150574,-1.1844151,-0.4970689,0,1
-3.2777648,-0.3525613,-1.9564008,0,1
-2.1690905,-0.078196734,-1.4395723,0,1
-1.1784626,0.012848769,-0.5884604,0,1
0.7101961,-0.23914616,0.74191684,0,1
1.2915238,-0.6232061,0.910884,0,1
1.5072688,-1.4253856,0.13698237,0,1
0.75549144,-2.372709,-0.92655396,0,1
0.3723145,-2.4195542,-1.4566765,0,1
0.2930313,-0.89927995,-2.1093254,0,1
0.67490625,0.063311346,-2.1017826,0,1
2.0145545,1.2484474,-1.4201794,0,1
2.5747864,1.0217191,-0.15369567,0,1
2.548478,0.32717526,0.42630792,0,1
1.4520218,-1.0150938,0.49422213,0,1
0.59526396,-1.2112991,0.12764281,0,1
-0.27087566,-0.8340513,-0.47381073,0,1
0.09285469,-0.45478648,-1.0830846,0,1
0.045721218,-0.45534825,-1.4480754,0,1
-0.5546687,-0.373585,-1.6882799,0,1
-0.616577,-0.33431455,-1.4947708,0,1
-0.68557364,0.40843472,-1.5751793,0,1
-0.7732932,2.0465431,-2.8224106,0,1
-1.1549171,2.933974,-3.502186,0,1
-2.2653785,3.6937838,-3.8064098,0,1
-2.1173687,3.8470058,-3.2924047,0,1
-0.23655376,4.432634,-1.4067364,0,1
1.1078575,5.2405047,0.06560214,0,1
1.519355,5.4631867,0.9802508,0,1
2.0511909,3.307679,2.7065048,0,1
1.8752239,1.8503929,2.777919,0,1
1.3144951,-0.019197134,2.6414464,0,1
0.91357934,-1.0889119,1.6872804,0,1
0.5083444,-0.96913815,0.9028885,0,1
0.28461018,-1.3505058,0.6482248,0,1
0.39456347,-1.8306628,0.5167035,0,1
0.37864757,-1.3332378,-0.3252233,0,1
0.55731404,-0.823578,0.10174201,0,1
0.8470134,-0.9690619,0.22753486,0,1
1.2402856,-0.34727478,0.17636539,0,1
1.1393447,0.21718127,0.12144431,0,1
1.0070689,-0.12170312,0.24912195,0,1
0.90339583,-1.0824262,0.18282934,0,1
0.70893276,-1.4986526,-0.095939465,0,1
0.02147519,-2.468713,-0.26663995,0,1
-0.32277542,-2.8005955,-0.1473827,0,1
-0.8565593,-2.8940637,-0.26966286,0,1
-1.0547038,-2.2677758,0.21053937,0,1
-0.7777096,-1.4444047,0.22802097,0,1
0.35823718,-0.53233254,-0.5876563,0,1
0.7627985,-0.8510553,-0.72118384,0,1
0.53050005,-1.0168526,-0.70670176,0,1
-0.58389765,-0.5905964,-1.1756303,0,1
-1.3535017,-0.13995478,-1.4172562,0,1
-2.206048,0.26521,-1.1782684,0,1
-2.1412327,0.016889447,-0.8115754,0,1
-1.367602,-0.61230767,-0.21700028,0,1
-0.5787229,-0.3688183,0.18707532,0,1
-0.5420599,-0.25013447,0.30777803,0,1
-1.2836589,-0.12094401,0.42202502,0,1
-1.6365869,-0.031574223,0.45709085,0,1
-1.6097171,-0.11900805,0.4545641,0,1
-0.57325256,-0.38606173,0.026011402,0,1
0.14180286,-0.4063483,-0.11785017,0,1
1.1982954,-0.22318456,0.39354756,0,1
1.3977122,-0.01603975,0.6836813,0,1
1.9586962,0.50042737,0.42522743,0,1
2.391303,0.6646787,-0.00118647,0,1
2.058088,0.77636445,-0.14695454,0,1
1.0871946,0.8804942,-0.62242144,0,1
0.7654793,0.5733146,-0.9392727,0,1
0.5318918,-0.39540118,-1.1895238,0,1
0.6300633,-0.86459374,-1.2048556,0,1
0.6290372,-0.6628191,-1.2061006,0,1
0.7035544,-0.14206803,-0.9756252,0,1
0.80371463,-0.23864089,-0.76147014,0,1
0.9130994,-0.6555386,-0.2688034,0,1
0.76089805,-0.60398585,-0.045639306,0,1
0.7141663,-0.29845908,-0.015441133,0,1
0.8312347,0.26152903,0.08799904,0,1
0.91153055,0.43790442,0.00218872,0,1
0.96950924,0.6397763,-0.17285495,0,1
0.5301292,-0.046169326,-0.40579998,0,1
0.2669746,-0.46390453,-0.7536317,0,1
0.060626447,-0.6433107,-1.0679332,0,1
0.118477054,-0.55205745,-0.99056613,0,1
0.078060955,-0.21788323,-0.7505768,0,1
0.045841813,-0.6036712,-0.69143456,0,1
0.010880291,-0.9854004,-0.5972688,0,1
-0.4436999,-0.75876343,-0.039141502,0,1
-0.57479143,-0.26267245,0.078427516,0,1
0.10250336,0.4905329,-0.18539181,0,1
0.7611503,0.89134514,-0.050828613,0,1
0.9178542,0.99665374,0.2440845,0,1
0.6991439,0.5806066,0.42529213,0,1
0.4777158,0.3359509,0.21340771,0,1
0.34421438,0.1095381,0.039710864,0,1
-0.04861632,0.05058861,-0.033769883,0,1
-0.28520775,0.012998574,-0.037642613,0,1
-0.3826227,-0.015426632,0.091807075,0,1
-0.22578058,-0.011866556,0.16426313,0,1
0.15168604,-0.040784813,0.20865078,0,1
0.11566176,-0.05024146,0.12827908,0,1
-0.003705397,-0.02976989,0.09966333,0,1
-0.062232032,-0.12395001,0.09323779,0,1
-0.002599118,-0.1693592,0.12236508,0,1
-0.028050283,-0.05219744,0.19213481,0,1
-0.11469469,0.01330759,0.15638824,0,1
-0.08660056,0.017492313,0.14656411,0,1
-0.05213739,0.061570194,0.16025098,0,1
-0.059174992,0.0659466,0.14628257,0,1
-0.10291471,0.02798177,0.0798849,0,1
-0.180035,-0.04160881,0.049462553,0,1
-0.1951327,-0.04039764,0.07342107,0,1
-0.10823607,-0.027822483,0.1461555,0,1
-0.051753215,-0.040772423,0.15463372,0,1
-0.035941087,-0.087812416,0.12798785,0,1
-0.09205006,-0.0466318,0.15792811,0,1
-0.10549099,-0.02307604,0.16737854,0,1
-0.0740297,-0.029533377,0.12364958,0,1
-0.058777407,-0.040556904,0.07961078,0,1
-0.051932402,-0.056271553,0.05592501,0,1
-0.04722317,-0.03977584,0.08679249,0,1
-0.056942508,-0.024831768,0.07469475,0,1
0.018190455,-0.02089977,0.03534464,0,1
0.06549858,-0.010120388,0.03359552,0,1
0.117999196,0.00336647,-0.017693184,0,1
0.023619205,-0.12102034,-0.07465969,0,1
-0.08409911,-0.20206837,-0.066727854,0,1
-0.44035444,-0.38298994,-0.042202584,0,1
-0.7109282,-0.4404965,0.0794221,0,1
-1.2657129,-0.17873384,0.12593545,0,1
-1.6823463,0.14352037,0.2636468,0,1
-1.923351,0.253974,0.35150167,0,1
-2.2536757,0.44534117,0.37999034,0,1
-2.1298432,0.49682432,0.36875567,0,1
-1.2926168,-0.020771947,0.44786423,0,1
-0.5930773,-1.0258485,0.549471,0,1
-0.31793925,-0.87643343,0.637129,0,1
0.48847488,0.8086482,-0.1918822,0,1
0.8149781,1.5488244,-0.8802379,0,1
0.76384425,1.7029411,-1.4862149,0,1
0.16712669,0.6861496,-0.7564,0,1
-0.18710747,-0.010001222,-0.30132145,0,1
-0.6199779,-0.9948798,0.32760876,0,1
-0.527698,-1.1485263,0.534353,0,1
-0.39726257,-1.0382938,0.70644516,0,1
-0.08277455,-0.55152786,1.4725335,0,1
0.43575603,-0.3443535,1.6861825,0,1
2.1359513,-1.0621233,0.29897356,0,1
2.6262977,-1.215046,-0.59448516,0,1
2.8465898,-0.36511058,-1.6862382,0,1
1.6897256,0.275807,-3.7804759,0,1
1.6103168,0.9646727,-3.9992938,0,1
1.5660763,1.0211517,-0.5606538,0,1
1.7135452,0.8505243,1.9553779,0,1
2.4436638,-0.14574291,3.7489958,0,1
2.99568,-0.34127107,2.6201103,0,1
2.584367,-0.16632634,1.3788456,0,1
0.68722343,-0.26958287,-0.86998135,0,1
0.11628494,-0.10742491,-1.3422558,0,1
0.41151237,0.3141965,-1.1762356,0,1
1.512563,0.05919359,-0.42098656,0,1
2.128164,-0.008527746,-0.1682212,0,1
2.3249853,0.17494866,-0.70412445,0,1
1.9111656,0.43964478,-1.0665494,0,1
1.1247684,0.29502568,-1.5735521,0,1
1.2254827,-0.4838269,-1.7884218,0,1
1.0656126,-0.6816714,-1.642579,0,1
-0.04287006,-0.29163665,-1.1561465,0,1
-0.29049504,0.097094454,-0.7803789,0,1
-0.7697817,1.1594267,-0.5156536,0,1
-2.7290678,0.32402802,0.19025277,0,1
-2.9097881,0.07172214,1.228907,0,1
