Acc_x [m/s^2],Acc_y [m/s^2],Acc_z [m/s^2],AnyFall,NegOutcome
0.7212148,0.94051653,0.39688268,0,1
1.3540075,1.3681221,0.48570058,0,1
1.4709703,0.9965249,0.36533144,0,1
1.4044111,0.42055228,0.16141334,0,1
1.1936343,-0.6530017,0.16361542,0,1
1.1922553,-0.88874716,0.3564105,0,1
1.2910075,-0.5883426,0.13362306,0,1
1.0257268,-0.641202,-0.4509804,0,1
0.8764554,-0.9040928,-0.54497325,0,1
0.7098025,-0.85704803,-0.33856535,0,1
0.7466652,-0.4551525,-0.22542354,0,1
0.41183382,0.64454365,-0.25292268,0,1
-0.6234565,1.6972837,-0.17592146,0,1
-0.75866485,1.4501896,-0.3111638,0,1
0.16587456,-0.27507305,-0.03458649,0,1
0.52529085,-0.73447704,0.24950221,0,1
0.31132364,-0.5847788,0.14940572,0,1
0.39372656,-0.2904615,0.19277002,0,1
0.6422689,-0.15959737,0.22584829,0,1
0.7694269,0.16304687,0.18003054,0,1
0.72506696,0.38940528,0.10657675,0,1
0.42291152,0.30858803,0.05273292,0,1
0.048244756,-0.2080946,0.032679114,0,1
-0.008587917,-0.1506195,-0.02291199,0,1
0.22789133,0.06684304,0.035837572,0,1
0.2995844,0.08699227,0.028325303,0,1
0.06687221,0.06317901,-0.122714676,0,1
-0.08666423,-0.030048378,-0.08748413,0,1
-0.15259346,-0.06253529,-0.08366211,0,1
-0.08637216,-0.000721932,0.019997695,0,1
-0.069590986,0.062281605,-0.012704158,0,1
0.07226842,0.064240456,-0.035685122,0,1
0.25541404,0.18737508,0.07143855,0,1
0.10413353,0.23549366,-0.004015164,0,1
-0.40199545,-0.016101856,-0.16338982,0,1
-0.5436657,-0.15782262,-0.14967255,0,1
-0.29177126,-0.17886926,-0.1316334,0,1
-0.043196686,-0.07403184,-0.05492132,0,1
-0.009791874,0.039541245,0.003991318,0,1
-0.03970493,0.13365746,0.025745582,0,1
-0.05021582,0.06582165,0.044502772,0,1
0.18329254,0.10957147,0.1320922,0,1
0.6258736,0.21514799,0.07938306,0,1
0.78355795,0.17874338,-0.107281856,0,1
0.6714995,-0.07759859,-0.54250944,0,1
0.46575278,-0.20527652,-0.6554798,0,1
-0.028708681,-0.029815719,-0.7866013,0,1
-0.8425452,0.24371237,-0.8298565,0,1
-1.094871,0.1752824,-0.83414733,0,1
-0.87258255,-0.21638113,-0.7949323,0,1
-0.4690672,-0.24971396,-0.84318954,0,1
0.61278665,0.16517158,-1.1073709,0,1
0.8075548,0.323451,-0.81260014,0,1
0.5159575,0.23281573,-0.5178618,0,1
-0.040264715,0.08900355,-0.22149244,0,1
-0.13432728,0.07508086,-0.27893525,0,1
-0.4545137,-0.04306319,-0.26722157,0,1
-0.72389275,0.029597254,-0.23554227,0,1
-0.62159085,0.14697453,-0.34303284,0,1
-0.01575379,-0.052255657,-0.48565984,0,1
0.5001744,-0.43600085,-0.603886,0,1
0.8629744,-0.992712,-0.57549006,0,1
-1.0106262,-0.5385151,0.2324558,0,1
-2.3162646,0.32376668,0.61318314,0,1
-2.9389343,1.9203186,0.44007844,0,1
-1.8414862,1.5218534,0.08672765,0,1
0.6816412,0.041133896,0.023623766,0,1
0.8748589,-0.13065335,0.20349838,0,1
0.575576,0.06828502,0.32506454,0,1
0.25188613,0.11392214,0.32132083,0,1
0.2521458,-0.06272791,0.20559768,0,1
0.27162072,-0.3927717,0.2639031,0,1
-0.09650834,-0.41205978,0.27613696,0,1
-0.32007647,-0.42866993,0.20038633,0,1
-0.8049447,-0.7927313,-0.13516943,0,1
-1.0158892,-0.9782277,-0.26877776,0,1
-0.99524355,-0.6638556,-0.18612541,0,1
-0.47456396,0.7696552,0.0801259,0,1
-0.47373852,1.3774614,0.18893874,0,1
-0.08477244,1.1878128,0.4444003,0,1
0.6420367,0.8284655,0.69889665,0,1
2.1362543,0.96368134,1.0593152,0,1
2.1908941,0.21331033,0.8136127,0,1
1.8604975,-0.058790118,0.9087697,0,1
1.1281506,-0.20605847,0.08826266,0,1
1.2818271,-0.70616055,-0.06255235,0,1
1.676526,-1.1979237,0.38366532,0,1
0.26381615,0.1056128,0.6649534,0,1
-0.7705067,1.5913563,0.38523534,0,1
-0.51787853,2.3536596,-0.83609784,0,1
0.55831647,0.39686868,-0.5016887,0,1
1.1215872,-1.6008348,0.21930605,0,1
-0.5541618,-0.554677,-0.18932085,0,1
-0.8474529,-0.27016738,-0.36067733,0,1
-0.15984792,-0.096598655,-0.5381245,0,1
-0.069309294,-0.12527946,-0.5376795,0,1
-0.6148532,-0.015112909,-0.32586724,0,1
-1.2039254,-0.2473679,-0.29052243,0,1
-1.114568,-0.3107367,-0.29045233,0,1
-0.25037512,0.12685774,-0.12046193,0,1
0.16771816,0.32145786,-0.10134304,0,1
0.8648088,-0.21510313,0.059753407,0,1
0.5864208,-1.0819721,0.27143365,0,1
-0.002983518,-1.0504513,0.2740657,0,1
-1.2106607,0.3390188,0.15012546,0,1
-1.5466624,1.1964674,-0.057870794,0,1
-1.0187739,1.2680779,-0.20265488,0,1
0.23045538,0.07759096,0.1858603,0,1
0.4777357,-0.18299481,0.27460852,0,1
0.24764466,-0.28485772,0.2392165,0,1
0.040039174,-0.318779,0.14838117,0,1
-0.19430056,-0.1845932,-0.033492565,0,1
-0.38096341,0.29016495,0.006529669,0,1
-0.44844064,0.48290825,-0.014793889,0,1
-0.27643883,0.37314606,-0.05671972,0,1
-0.12309123,0.18276499,-0.08741401,0,1
0.17862737,-0.027625088,-0.12132381,0,1
0.42879006,-0.021738049,-0.08467295,0,1
0.40214264,-0.050194737,-0.07788557,0,1
0.223041,-0.052122116,-0.11969268,0,1
0.17012696,-0.026811602,-0.10572603,0,1
0.062849894,0.06744289,-0.10360669,0,1
0.08597172,0.050769806,-0.04687723,0,1
0.111191235,0.03334999,-0.025295598,0,1
0.16261645,0.11072922,-0.09477356,0,1
0.20809655,0.10689449,-0.11910454,0,1
0.35636482,-0.012949936,-0.004711472,0,1
0.18352559,-0.070666306,0.0407606,0,1
0.031179179,0.013662341,0.04637799,0,1
-0.21031812,0.16928768,0.109292686,0,1
-0.30027103,0.211092,0.11729502,0,1
-0.2861447,0.103610985,0.022852285,0,1
-0.013093321,0.012978551,-0.041824315,0,1
0.08619472,0.028233526,-0.052865833,0,1
0.21679437,0.028362269,-0.17579812,0,1
0.29754752,-0.01960755,-0.21587572,0,1
0.374308,-0.027739529,-0.20326746,0,1
0.19326186,-0.005296713,-0.18731618,0,1
0.144323,0.002443308,-0.16333467,0,1
0.09100491,0.06397247,-0.08823603,0,1
0.045615047,0.10298824,-0.060786344,0,1
-0.018711653,0.029490475,0.068782166,0,1
0.002352141,0.02784253,0.117040254,0,1
0.077390276,0.051099785,0.12990649,0,1
0.17863894,0.07334711,0.14992651,0,1
0.20366293,0.0674801,0.15947483,0,1
0.23105913,-0.000206937,0.097779945,0,1
0.29141515,-0.01633262,-0.00415177,0,1
0.30446798,0.031847958,-0.03140254,0,1
0.29415327,0.04416466,-0.021106815,0,1
0.2310932,0.046813015,-0.01903596,0,1
0.063322276,0.052877426,-0.010561244,0,1
-0.10523744,0.07626343,-0.002558756,0,1
-0.35748753,0.032098766,0.042874504,0,1
-1.1511595,0.20707414,-0.0043837,0,1
-1.2318761,0.32113454,-0.047588866,0,1
-0.8341066,0.11137197,-0.034002177,0,1
-0.19115224,-0.16916466,-0.028779155,0,1
0.05253046,-0.24401093,-0.010979743,0,1
0.39173335,-0.16269206,0.009827292,0,1
0.46878222,-0.06547926,0.03037126,0,1
0.36765087,0.14976217,0.006011554,0,1
0.31338805,0.2539568,0.03976816,0,1
0.35529938,0.23079683,0.07153689,0,1
0.5297551,0.038410205,0.0964074,0,1
0.5276511,-0.029677374,0.08289899,0,1
0.3681965,-0.019437779,0.043908507,0,1
0.080567986,0.003020289,0.016207214,0,1
-0.061183408,0.016424177,-0.001285802,0,1
-0.25043064,0.09890174,-0.06787423,0,1
-0.27498555,0.09501266,-0.0774215,0,1
-0.21923825,0.048830025,-0.07992573,0,1
-0.1403861,0.04271125,-0.08552524,0,1
-0.079093285,0.02660751,-0.035972536,0,1
-0.10628559,0.018383022,-0.030617086,0,1
-0.12627216,0.01990604,-0.030670842,0,1
-0.15859567,0.07071781,-0.000167127,0,1
-0.11704385,0.11330986,0.018800793,0,1
-0.05272056,0.102832794,0.046988785,0,1
0.066529036,0.077986725,0.0594281,0,1
0.10968771,0.061591152,0.048368532,0,1
0.21338964,0.028162964,0.04841031,0,1
0.25880957,0.01523877,0.043048598,0,1
0.2349532,-0.002737991,0.05900362,0,1
0.1473083,0.016490944,0.07592327,0,1
0.08012952,0.0422802,0.065351054,0,1
0.011613486,0.057817463,0.04334267,0,1
-0.03961122,0.059674263,0.000891886,0,1
-0.024244886,0.04296112,0.009614046,0,1
-0.034230474,0.07786751,0.003761101,0,1
-0.07737833,0.06030273,-0.0090116,0,1
-0.13091457,0.016811365,-0.05424788,0,1
-0.10129511,0.07666969,0.001365487,0,1
-0.08534734,0.1078434,0.012765364,0,1
0.025654908,0.088098526,-0.04167056,0,1
0.10128493,0.055682182,-0.05800445,0,1
0.15575488,0.025231361,-0.043871894,0,1
0.15966275,0.019498825,-0.056330208,0,1
0.13544421,0.020484924,-0.06828665,0,1
0.05099103,0.04014206,-0.010400929,0,1
0.00866495,0.02637005,0.02235295,0,1
-0.094014645,0.053183556,0.020845467,0,1
-0.15072505,0.09566784,0.032742932,0,1
-0.1366318,0.077812195,0.056492094,0,1
-0.0565589,0.06705856,0.034052074,0,1
-0.014944798,0.05736351,0.016627902,0,1
0.05926403,0.037540436,-0.006027346,0,1
0.0547711,0.03182888,-0.030141843,0,1
0.041766517,0.029500008,-0.016599508,0,1
0.020928606,0.018200874,-0.011169525,0,1
-0.010792159,0.015313147,-0.023028351,0,1
-0.022854432,0.049934383,-0.053081647,0,1
0.001091993,0.050827026,-0.02524721,0,1
0.001999427,0.05967331,-0.018121421,0,1
0.037259728,0.033946037,-0.000405423,0,1
0.04914211,0.02090168,-0.024736667,0,1
0.076493084,0.020486834,-0.002249718,0,1
0.026826171,0.03565502,-0.010228176,0,1
0.009667793,0.04898739,-0.014517617,0,1
0.03879871,0.044493675,0.002768637,0,1
0.038547155,0.036319733,-0.014109887,0,1
0.035232577,0.030261993,-0.008949829,0,1
0.042204294,0.019190788,-0.012419635,0,1
0.042274628,0.018900871,-0.001742958,0,1
0.0246437,0.043040276,-0.01657596,0,1
0.031292956,0.04390335,-0.021005794,0,1
0.042488586,0.030132296,0.001077094,0,1
0.04393067,0.059622765,-0.002698783,0,1
0.0750336,0.05012417,-0.02411285,0,1
0.20404604,0.015892984,-0.048394464,0,1
0.20990138,0.02155018,-0.059174526,0,1
0.043673217,0.046228405,-0.070190735,0,1
-0.11230266,0.07020759,-0.06788993,0,1
-0.14769036,0.08073329,-0.046219368,0,1
-0.1781269,0.05565452,-0.033048738,0,1
-0.2080915,0.04201507,-0.028627774,0,1
-0.19514488,0.05783748,-0.026750568,0,1
-0.07845865,0.03829479,-0.05466294,0,1
-0.015471878,0.046153065,-0.056992285,0,1
0.056477968,0.055171967,-0.04024013,0,1
0.09494829,0.052052498,-0.031780545,0,1
0.1648153,0.077317245,0.005450291,0,1
0.15599933,0.06803513,0.061409865,0,1
0.13158797,0.060519226,0.062029082,0,1
0.13998415,0.028893476,0.031237887,0,1
0.15129507,0.019045833,0.01684221,0,1
0.042659905,0.034157757,0.041478347,0,1
0.000156583,0.089416504,0.003104877,0,1
-0.005735953,0.09018326,-0.022710618,0,1
0.025136724,0.028408052,0.012457687,0,1
0.076540604,0.016684534,-0.005182826,0,1
0.15294337,0.036936764,0.009961585,0,1
0.066669375,0.059069637,0.012443,0,1
-0.000519925,0.057790756,-0.014843587,0,1
-0.04672902,0.03592777,-0.065102056,0,1
-0.060196128,0.047665592,-0.06887707,0,1
-0.06035403,0.04034519,-0.045854587,0,1
-0.017059183,-0.017989162,-0.04663523,0,1
-0.05906201,0.020983692,-0.037095312,0,1
-0.18795478,0.042869564,-0.012137757,0,1
-0.20075369,0.031121248,-0.015175318,0,1
-0.12363697,0.09142399,0.022883506,0,1
-0.03311487,0.06667805,0.029551335,0,1
-0.015744535,0.043310165,0.027074715,0,1
0.047004335,0.045482635,0.014619375,0,1
0.051459607,0.04004574,-0.006019665,0,1
-0.014166391,0.04178047,-0.006677126,0,1
-0.010573851,0.035035133,-0.013193691,0,1
0.005199936,0.05327511,-0.034971565,0,1
0.011634486,0.05772686,-0.025989866,0,1
0.001447249,0.058778763,-0.019658897,0,1
-0.024828192,0.07014465,-0.025302928,0,1
0.05024536,0.023813248,-0.019487826,0,1
0.06774603,0.025961878,-0.009139944,0,1
-0.016729265,0.06781483,-0.017791353,0,1
-0.055554226,0.06976795,-0.033386625,0,1
-0.024523627,0.06881713,-0.06357502,0,1
0.10646576,0.030670168,-0.024214357,0,1
0.13356952,0.016642572,-0.024591424,0,1
0.13373926,0.036684036,-0.048766255,0,1
0.12538213,0.034855843,-0.030492404,0,1
0.10258517,0.057566643,-0.010836748,0,1
-0.020735044,0.064222336,-0.003720003,0,1
-0.06761857,0.060886383,0.005132038,0,1
-0.04450528,0.044067383,0.024080617,0,1
-0.019722028,0.03710842,0.003269063,0,1
-0.028174773,0.027286526,-0.057104655,0,1
0.03856237,0.030024527,-0.031735152,0,1
0.06693974,0.06599522,-0.02874157,0,1
0.09123022,0.04905987,0.000669955,0,1
0.104120955,0.034440998,0.01320464,0,1
0.09571704,0.06557274,-0.007880984,0,1
0.050465245,0.061368942,0.001286915,0,1
-0.016421128,0.0661602,-0.005794678,0,1
-0.19184431,0.07454967,-0.035249606,0,1
-0.18380727,0.05424976,-0.019481644,0,1
-0.029671963,0.050632477,-0.00579336,0,1
0.08676448,0.051804546,0.014257,0,1
0.13107912,0.059466366,0.020665713,0,1
0.1441746,0.05794621,0.011171065,0,1
0.09564175,0.060367588,0.017196227,0,1
0.002436772,0.049395565,0.044214282,0,1
-0.08454557,0.071712494,-0.028177293,0,1
-0.11932731,0.0739231,-0.040091395,0,1
-0.13624819,0.047764774,-0.043630604,0,1
-0.123428315,0.057547566,-0.048648153,0,1
-0.04657517,0.04680824,-0.03640381,0,1
0.08308556,0.031583786,-0.007059017,0,1
0.13509385,0.034848217,-0.000730222,0,1
0.116964586,0.043288235,-0.009769202,0,1
0.032908548,0.05404663,-0.040958155,0,1
-0.10868804,0.0783081,-0.049578276,0,1
-0.1411336,0.04587745,-0.06385189,0,1
-0.12489858,0.028392786,-0.06443923,0,1
-0.05608599,0.014238351,-0.088451736,0,1
-0.02006264,0.03450584,-0.08789896,0,1
0.00576427,0.051208492,-0.061667565,0,1
0.019199112,0.011600493,-0.04546485,0,1
0.03623295,0.011270522,-0.02707432,0,1
0.045471195,0.05475521,0.006192211,0,1
0.03860403,0.06370735,0.010800477,0,1
0.052591726,0.036298756,0.031387065,0,1
0.010640643,0.042346954,0.006094728,0,1
-0.020072896,0.045669556,-0.005620871,0,1
-0.05990119,0.08063412,-0.001039729,0,1
-0.09204785,0.08699894,0.00663086,0,1
-0.09169713,0.042081833,0.042785216,0,1
-0.006060075,0.04868794,0.055027876,0,1
0.025079515,0.0708704,0.033371992,0,1
0.10171136,0.051451683,-0.02781545,0,1
0.14134157,0.052207947,-0.03741467,0,1
0.14326029,0.063370705,-0.047465548,0,1
0.07715439,0.033038136,-0.08770216,0,1
0.031577397,0.05078506,-0.09995567,0,1
-0.039593674,0.04000663,-0.09939889,0,1
-0.06401993,0.02069854,-0.11763742,0,1
0.023600154,0.006874079,-0.11148155,0,1
0.09824384,0.031025885,-0.08507705,0,1
0.100921735,0.041971207,-0.071470775,0,1
0.05738554,0.05749702,-0.0736211,0,1
0.05172761,0.05182266,-0.057410788,0,1
0.071600154,0.021822928,-0.049690202,0,1
0.08721885,0.024023054,-0.054624267,0,1
0.08825913,0.026880262,-0.05585169,0,1
0.06470343,0.035429955,-0.052197486,0,1
0.07430209,0.042560577,-0.044982083,0,1
0.023042563,0.067193024,-0.080446534,0,1
-0.030030333,0.084287636,-0.07076622,0,1
-0.06541729,0.09549808,-0.050480366,0,1
-0.21015383,0.09755134,-0.09502893,0,1
-0.26024675,0.10296916,-0.07130791,0,1
-0.34708387,0.13081549,-0.0369211,0,1
-0.41980198,0.13543223,-0.005173333,0,1
-0.44522727,0.0909767,-0.037566435,0,1
-0.4676364,0.056544285,-0.14568157,0,1
-0.39103532,0.0916004,-0.14235902,0,1
-0.20169255,0.052911744,-0.17679442,0,1
0.103242,-0.03490639,-0.115165174,0,1
0.3257009,-0.036316868,-0.08569874,0,1
0.45511225,-0.04311656,0.022603123,0,1
0.38380298,-0.060947407,0.047794815,0,1
0.24331757,-0.034687035,0.027219905,0,1
0.21277872,0.08088685,0.042235505,0,1
0.19266495,0.05408574,0.06757215,0,1
0.101914585,0.04843903,0.0346895,0,1
0.14434522,0.06777001,0.031405777,0,1
0.28617764,0.03784562,0.04971881,0,1
0.35203364,0.050940525,0.040632065,0,1
0.36391354,0.030239115,0.028732272,0,1
0.29235572,0.01662541,-0.003683819,0,1
0.22920308,0.045899395,-0.026710158,0,1
0.12784018,0.044099808,-0.06443785,0,1
0.120358266,0.016382217,-0.05943503,0,1
0.093954556,0.010791778,-0.045007292,0,1
0.008622376,0.026171682,-0.04685603,0,1
0.02181027,0.032572743,-0.05346219,0,1
0.028205857,0.062571526,-0.034533452,0,1
0.22352342,-0.013046261,-0.027203608,0,1
0.3486587,-0.007967944,-0.04957439,0,1
0.28702497,0.10825539,-0.12890437,0,1
0.20891286,0.105054855,-0.13592467,0,1
0.1109194,0.007414816,-0.07462335,0,1
-0.27435398,0.05714034,-0.068095624,0,1
-0.5135347,0.09809874,-0.059086345,0,1
-0.69777316,0.07126902,0.025380973,0,1
-0.6695743,0.04812335,0.044113938,0,1
-0.6182156,0.0784521,0.08530726,0,1
-0.55399305,0.08098982,0.013067235,0,1
-0.4538477,0.0635557,-0.050949987,0,1
-0.10614078,-0.017493254,-0.047446042,0,1
0.051988594,-0.023932457,-0.035208948,0,1
0.001366101,-0.18609524,-0.059048653,0,1
-0.011330645,-0.14538193,0.005733646,0,1
-0.030875914,-0.15138245,0.07750224,0,1
-0.2212048,0.056536674,0.066039816,0,1
-0.24319956,0.18499565,0.040479507,0,1
-0.17501703,0.24906349,0.004478466,0,1
0.08044772,-0.21758461,-0.010803508,0,1
0.3409968,-0.22331524,-0.06100196,0,1
0.33416966,0.21171188,-0.22984375,0,1
0.17182124,0.36074734,-0.26450267,0,1
-0.045134302,0.28886318,-0.17004222,0,1
-0.00028709,0.011205667,-0.110399395,0,1
0.0669826,0.108210556,-0.13514175,0,1
0.042921297,0.14931488,-0.13342999,0,1
0.004734557,0.089662544,-0.11062471,0,1
0.055961087,0.29085445,-0.09092975,0,1
0.16173653,-0.0019083,-0.01253064,0,1
0.03872964,-0.11371136,-0.041090414,0,1
0.004852139,-0.029286386,-0.030424418,0,1
-0.001605006,0.08692645,-0.06977578,0,1
-0.06954656,0.12939547,-0.14239304,0,1
0.16285397,0.24102402,-0.07399083,0,1
0.12761906,0.18390465,-0.062280837,0,1
-0.12649968,-0.1357069,-0.05252005,0,1
-0.19528265,-0.08215333,-0.0348966,0,1
-0.15974857,0.10949516,0.01105412,0,1
-0.049613457,0.23098373,-0.008152162,0,1
-0.03098794,0.14274311,0.011275679,0,1
0.019289654,0.021718977,-0.028638056,0,1
0.055626795,0.080818176,-0.045299824,0,1
0.08713295,0.023959158,-0.08247487,0,1
0.087745465,-0.10929775,-0.06871055,0,1
0.058212828,-0.046667103,-0.060384143,0,1
-0.07853432,0.101762764,-0.08003629,0,1
-0.12593235,0.17295742,-0.05316029,0,1
-0.1819604,0.29593945,-0.048549015,0,1
-0.04718662,0.14538383,0.013137776,0,1
-0.044700626,0.062129974,0.042633194,0,1
-0.08909401,0.00758362,0.05595827,0,1
-0.079508156,-0.15224075,0.04121043,0,1
0.024411969,-0.27201176,0.044651426,0,1
0.093293086,-0.056253426,0.07084034,0,1
0.068347126,0.06905461,0.04786095,0,1
-0.004444135,0.13557339,-0.059553705,0,1
-0.087494805,0.07185363,-0.10290765,0,1
-0.2671264,-0.1366272,0.036287427,0,1
-0.644184,0.11661147,0.06072568,0,1
-0.79855245,0.31750676,0.019662965,0,1
-0.885103,0.28166768,0.009143429,0,1
-0.9215219,0.15663622,0.019896546,0,1
-0.833419,0.025805451,-0.06782678,0,1
-0.29294077,0.030895215,-0.22153589,0,1
-0.070338905,0.040931683,-0.2907719,0,1
0.34395474,-0.002868665,-0.3512537,0,1
0.6075502,-0.036473278,-0.3225896,0,1
0.9417411,-0.04122161,-0.24917766,0,1
0.9146938,-0.042654026,-0.18681483,0,1
0.9309305,-0.044825543,-0.14857197,0,1
0.8667917,0.039279953,-0.08764815,0,1
0.7940918,0.0625992,-0.07076139,0,1
0.6087817,0.086705215,-0.06095491,0,1
0.4727451,0.120965965,-0.024050958,0,1
0.4266259,0.08320428,-0.013740595,0,1
0.47526,-0.003317821,0.02610147,0,1
0.53004414,-0.014938341,0.04057491,0,1
0.5575514,-0.023859965,0.005819632,0,1
0.4552183,0.005617151,-0.01848422,0,1
0.33236527,0.02915669,-0.029058984,0,1
0.0839582,0.04146099,-0.056149792,0,1
-0.011847539,0.040684696,-0.040901527,0,1
-0.17358595,0.048071858,0.009027391,0,1
-0.37028712,0.08981895,-0.020799102,0,1
-0.4449123,0.08961391,-0.025087679,0,1
-0.5577294,0.06482695,9.41E-05,0,1
-0.5499251,0.055415142,-0.010680389,0,1
-0.45583138,0.07639502,-0.04345682,0,1
-0.46579704,0.08784102,-0.027834648,0,1
-0.46450624,0.065367684,-0.022860508,0,1
-0.37288463,0.023965828,0.025450336,0,1
-0.3231579,0.028741831,0.030332388,0,1
-0.25440285,0.052923195,-0.009160404,0,1
-0.11258405,0.0722866,-0.037282288,0,1
-0.044928953,0.06692505,-0.04264355,0,1
0.023150988,0.03961658,-0.0699414,0,1
0.058364466,0.05321693,-0.05933362,0,1
0.062291186,0.04838276,-0.017381556,0,1
-0.009233148,0.008068084,-0.018401494,0,1
-0.011919564,0.007761953,-0.026200553,0,1
0.008286921,0.030649183,-0.039372332,0,1
-0.00452165,0.04792881,-0.027110282,0,1
-0.036602274,0.044896122,-0.03023677,0,1
-0.043692686,0.036664005,-0.036643136,0,1
-0.039287813,0.041302677,-0.03177132,0,1
-0.041398495,0.0552721,-0.033197034,0,1
-0.050124332,0.050370213,-0.0313108,0,1
-0.07857543,0.04873085,0.005066537,0,1
-0.09400946,0.06647682,0.001157781,0,1
-0.1207638,0.06698799,-0.012477648,0,1
-0.12646797,0.061875343,0.022683354,0,1
-0.10636802,0.061881065,0.030011175,0,1
-0.083517514,0.08414841,0.020780815,0,1
-0.045526795,0.094509125,-0.02462813,0,1
-0.029531043,0.07513523,-0.05504504,0,1
-0.050626922,0.029453274,-0.062212,0,1
-0.036565658,0.020795817,-0.09102486,0,1
0.04328514,0.01615142,-0.14282627,0,1
0.09926612,0.03559398,-0.14187379,0,1
0.07604314,0.038793556,-0.14405191,0,1
0.019999709,0.03124141,-0.13722485,0,1
0.012512639,0.037331574,-0.13468239,0,1
-0.028829679,0.058495514,-0.14745432,0,1
-0.06125037,0.057065953,-0.14577645,0,1
-0.016556688,0.07331657,-0.12101595,0,1
0.06554018,0.07411194,-0.07147435,0,1
0.08088134,0.07194328,-0.058488976,0,1
0.07099386,0.12357998,-0.0034249,0,1
0.03666585,0.16020395,0.14960198,0,1
0.023381896,0.14589407,0.24088508,0,1
-0.07185184,0.011306776,0.26317263,0,1
-0.01996018,-0.030407894,0.19854945,0,1
0.18590489,-0.09789084,0.22674239,0,1
0.29137984,-0.20436381,0.16346668,0,1
0.40790558,-0.16186236,0.14223443,0,1
0.31643847,0.062302604,0.14609382,0,1
-0.014227381,0.16036701,0.064585656,0,1
-0.6379853,0.10134601,0.15696609,0,1
-0.7968365,-0.07203771,0.09090971,0,1
-0.8408052,-0.007714294,-0.07635912,0,1
-0.83570105,0.10855765,-0.61898685,0,1
-0.5355966,0.025659505,-0.7986612,0,1
0.44105196,-0.011118917,-0.67579186,0,1
0.40402508,0.10914037,-0.72652054,0,1
0.18298274,0.17413612,-0.8277354,0,1
-0.051257044,0.11794371,-0.976875,0,1
-0.15224725,-0.002238328,-0.92026466,0,1
-0.12730828,-0.023524333,-0.8247465,0,1
0.41546613,0.112064324,-0.7769892,0,1
0.61215067,0.18109319,-0.76030326,0,1
0.5650887,0.24086471,-0.89842075,0,1
0.4535113,0.16780657,-1.1323783,0,1
0.27181673,-0.013536527,-1.4358213,0,1
0.034992695,-0.13056478,-1.5740862,0,1
0.06972957,-0.18332681,-1.6315665,0,1
0.42824134,-0.2603303,-1.5839245,0,1
0.5224765,-0.3508826,-1.3115766,0,1
-0.091673054,-0.7004814,-0.18617237,0,1
-1.093354,-0.6578694,-0.14983566,0,1
-1.2739336,-0.32650858,-0.3517634,0,1
-1.4185064,-0.14626317,-0.12786438,0,1
-1.3267804,-0.24241543,0.40904126,0,1
-0.7640585,0.39772993,1.4762114,0,1
0.3454313,2.2152655,2.1338685,0,1
0.70389575,2.5914547,2.3502023,0,1
0.3999356,1.7303897,2.312488,0,1
0.090786815,0.9052259,1.890597,0,1
-0.2930409,-0.54433054,1.1047088,0,1
0.25257403,-0.8843698,1.171633,0,1
0.92704654,-0.77870935,1.1444738,0,1
1.4752159,-0.808073,0.67355627,0,1
1.2395778,-0.68976015,0.335775,0,1
0.5958116,-0.37533757,0.4136285,0,1
0.24612457,0.5662823,0.38444117,0,1
0.25219125,1.216609,0.22630836,0,1
0.2995094,0.54665565,0.3090131,0,1
0.16252151,-0.36882302,0.46234235,0,1
-0.29774082,-0.7195196,0.4784883,0,1
-0.5619025,-0.11316967,0.24378225,0,1
-0.4060496,-0.12064171,0.1653186,0,1
0.006914395,-0.2757454,0.035200574,0,1
0.021116244,-0.19605923,-0.025813833,0,1
-0.23324472,0.15906523,-0.09219957,0,1
-0.40192127,0.07438182,0.021177877,0,1
-0.38690075,-0.076483734,-0.030223418,0,1
-0.25564164,-0.12142182,-0.08204476,0,1
-0.24323991,-0.01202775,-0.077616975,0,1
-0.2629215,0.17002678,0.007494214,0,1
-0.19065796,0.027637478,0.007815836,0,1
-0.16923466,-0.020176891,-0.016779909,0,1
-0.17650491,0.030131334,-0.043806873,0,1
-0.16310424,0.081201546,-0.059883043,0,1
0.003234875,0.122724526,-0.07644076,0,1
0.14841482,0.09241676,-0.021550866,0,1
0.17025365,0.10511303,-0.023151984,0,1
0.21935594,0.015887266,0.00176371,0,1
0.22479661,-0.008644099,-0.010346056,0,1
0.2497556,0.043620113,0.003085959,0,1
0.108077615,0.032229424,-0.035127804,0,1
0.01104385,0.026136396,-0.042687397,0,1
-0.15113844,0.10591983,-0.048292525,0,1
-0.20257407,0.121354096,-0.038983442,0,1
-0.20412548,0.07276439,0.011916575,0,1
-0.17994216,0.11128807,0.018139724,0,1
-0.18351802,0.08973789,0.027392326,0,1
-0.16773178,0.016040802,0.06529732,0,1
-0.13436754,0.017186165,0.053761277,0,1
-0.08561625,0.013818741,0.027105156,0,1
-0.09941304,0.08559036,0.05445013,0,1
-0.09135893,0.17445374,0.08401173,0,1
-0.13518226,0.19543266,-0.02481462,0,1
-0.29336748,0.22754669,-0.007142225,0,1
-0.59267926,0.3422813,-0.045764487,0,1
-0.48162067,-0.028369915,-0.005575614,0,1
-0.07878503,-0.29432392,0.08410839,0,1
0.8483219,-0.2864599,0.42321327,0,1
0.9321164,-0.060056638,0.50204694,0,1
0.3084699,0.2742081,0.17174508,0,1
-0.43179196,0.17747211,0.11717289,0,1
-0.574864,0.17069721,0.27902886,0,1
-0.31757587,-0.2702007,0.5341563,0,1
-0.09051567,-0.8114042,0.5093028,0,1
0.60450256,-0.8340635,0.43870547,0,1
1.004929,1.2079916,0.5291795,0,1
0.9188267,1.7043276,0.47024503,0,1
0.7485255,1.0642796,0.67577857,0,1
0.657424,0.5124684,0.81852233,0,1
0.31830662,-0.7341184,0.9489754,0,1
-0.015784144,-1.194333,1.1747948,0,1
-0.12566587,-1.0534562,1.3712649,0,1
-0.19176957,-0.77419466,1.415532,0,1
-0.19009107,-0.80290693,1.2533032,0,1
0.09211075,-1.1091136,1.287063,0,1
0.5103605,-0.763276,1.9926093,0,1
0.5551058,-0.40634713,2.449098,0,1
0.19055474,0.21255223,2.9902596,0,1
-0.592731,1.3638793,2.8259406,0,1
-2.4195178,4.6996565,1.0494848,0,1
0.46129903,2.120616,1.1885741,0,1
1.9281229,0.4903594,0.6847308,0,1
0.47434157,0.2461117,-3.0409613,0,1
-0.7587109,-0.3401091,-4.137488,0,1
-1.2552524,-1.404752,-3.657155,0,1
0.76259625,-0.5993234,-2.426731,0,1
1.2416215,-0.493991,-1.9715279,0,1
0.87654227,-0.99918467,-1.1748655,0,1
0.85599804,-1.0345392,-0.7493368,0,1
1.3316152,-0.5918035,0.3867826,0,1
1.4087822,-0.41841498,1.1799074,0,1
1.1978128,-0.5152167,1.3064274,0,1
0.7761508,-0.8214311,1.2338455,0,1
0.963023,-0.9596395,1.1114936,0,1
1.782087,-0.8949393,1.3941152,0,1
1.836904,-0.68987644,1.8527077,0,1
1.7150434,-0.5435494,1.741636,0,1
1.9178288,0.8278123,1.4304955,0,1
2.1100898,1.9445287,1.5455774,0,1
2.1564312,2.5861323,1.8029336,0,1
2.369387,2.2492495,0.56510097,0,1
1.6161151,2.1970587,-0.7416901,0,1
-1.2703068,0.8156736,-3.3278103,0,1
-1.6039597,0.11813526,-2.8961883,0,1
-0.008724369,1.2863426,-0.12757115,0,1
0.7170658,0.9146089,-1.039964,0,1
0.10228604,-0.096939184,-1.7216051,0,1
0.029135287,-1.4169847,-1.3813818,0,1
0.23760709,-1.3161926,-0.93823814,0,1
0.4605144,-0.54560286,-0.9576241,0,1
2.3600438,-0.18441491,-1.595413,0,1
3.3467758,-1.2121611,-2.2301373,0,1
2.9814322,-2.7110562,-3.1135504,0,1
2.4558659,-1.8702513,-3.7474198,0,1
-0.5033517,0.70591235,-3.76723,0,1
-4.5081244,0.80434686,-0.98874384,0,1
-5.92586,-0.27134052,-0.6013452,0,1
-8.28189,1.1660451,0.6657482,0,1
-8.289352,3.8423872,1.893619,0,1
-4.554816,2.1608684,-0.8953297,0,1
-2.7040656,-2.1560476,-3.980133,0,1
-3.9720957,-1.1329777,-3.0222547,0,1
-4.165986,0.27560037,0.54011273,0,1
-3.4650595,-0.9877967,2.2291584,0,1
-2.2875462,-2.256758,3.4635804,0,1
-1.3654592,-1.2863635,2.2827256,0,1
-0.904652,-1.4642113,1.9768429,0,1
-0.46337354,-2.5463033,1.7883614,0,1
-0.046063215,-2.7230563,1.2089211,0,1
0.8987154,-2.1834702,-0.090505235,0,1
0.8340991,-1.4994268,0.6038787,0,1
0.61248285,-1.4758719,0.87722236,0,1
-0.24236935,-1.8889642,-0.046181902,0,1
-0.6233175,-1.9511114,-0.851085,0,1
-0.99569994,-1.6721088,-1.3645016,0,1
-0.9217799,-0.9245196,-0.70399153,0,1
-0.7332976,-0.3006516,-0.8693803,0,1
-0.29960918,0.8899221,-0.71050096,0,1
0.1623052,0.8747444,-0.45499325,0,1
0.39716637,1.0258017,0.15244761,0,1
-0.33241087,1.2162342,-0.09585822,0,1
-0.2711629,1.0975924,-0.6887219,0,1
-0.23342341,1.3722229,-0.3615871,0,1
-0.41839397,1.1667776,-0.2963729,0,1
-0.4143675,0.17326161,-0.42463398,0,1
-0.049575806,0.01755813,0.5775257,0,1
-0.04799357,0.6983424,0.6025143,0,1
-0.5667503,1.5768871,0.49779603,0,1
-0.85834247,1.2994928,0.50167173,0,1
-1.1637061,2.4145298,0.3331857,0,1
-1.08158,2.395464,-0.21365348,0,1
-0.9473132,1.5186815,-0.31635764,0,1
-0.76887286,0.36966416,-0.2976134,0,1
-0.6188462,-0.0482798,-0.40187407,0,1
-0.008536067,-0.26587296,0.043700505,0,1
-0.02398403,0.33988476,0.102041475,0,1
-0.12940414,0.67948246,-0.06734323,0,1
-0.11975811,0.8018656,-0.07819927,0,1
-0.0641895,0.5606756,0.13427489,0,1
-0.25018662,0.26466563,0.48554513,0,1
-0.5126781,0.4467907,0.07260286,0,1
-0.44209462,0.39276695,-0.07766495,0,1
-0.22681826,0.003390309,0.029688496,0,1
-0.18153675,-0.119696625,-0.034582898,0,1
-0.16394952,0.004426917,-0.64825225,0,1
-0.3152852,-0.15257552,-0.34503636,0,1
-0.39998055,0.08419037,0.122855335,0,1
-0.50065553,0.7286682,0.35140383,0,1
-0.42662784,0.44099903,0.28771666,0,1
0.046547018,-0.3573303,0.32499233,0,1
0.2783603,-0.02709386,0.39239502,0,1
0.18842842,0.16123107,0.3919598,0,1
-0.033025406,0.018797886,0.20549767,0,1
-0.053230353,-0.08325195,0.06850838,0,1
0.016253194,-0.039954185,-0.01125817,0,1
0.068499066,-0.00962066,0.09220137,0,1
0.0961595,0.008596431,0.1410099,0,1
0.015415851,0.024600042,0.21975362,0,1
-0.054804333,0.031012548,0.25206903,0,1
-0.08358028,0.018231405,0.28129712,0,1
-0.033589236,0.042368904,0.28029463,0,1
-0.036876924,0.027670875,0.28679064,0,1
-0.049520485,0.039791115,0.16904011,0,1
-0.0731186,0.03627301,0.13077584,0,1
-0.042154424,0.0283804,0.1244381,0,1
-0.002704077,0.0464964,0.1499133,0,1
-0.017154645,0.058307655,0.15629981,0,1
-0.10418901,0.031332977,0.14180832,0,1
-0.092504725,0.03809739,0.14845762,0,1
-0.021644231,0.026488313,0.16425626,0,1
-0.006221846,0.018488891,0.15004507,0,1
-0.019268963,0.022441871,0.12618065,0,1
-0.006880712,0.055037506,0.14513345,0,1
-0.01873881,0.050557144,0.17252715,0,1
-0.101821184,0.032135013,0.120364726,0,1
-0.014831614,0.046506885,0.100159906,0,1
0.051451214,0.026912697,0.12361138,0,1
0.082590275,0.016601572,0.14609322,0,1
0.059132192,0.01693345,0.14174095,0,1
0.022357816,0.03256703,0.13814294,0,1
-0.02539324,0.032429703,0.1280915,0,1
-0.050406877,0.037304882,0.11772819,0,1
-0.07897173,0.06611348,0.100552835,0,1
-0.08029917,0.073316574,0.09732024,0,1
-0.09146465,0.024445537,0.10007073,0,1
-0.018287733,0.014163976,0.09876013,0,1
0.005786225,0.0396061,0.105819836,0,1
-0.03552395,0.05798817,0.09450702,0,1
-0.050061144,0.051666263,0.08801119,0,1
-0.01197101,0.03706074,0.09376337,0,1
0.010966975,0.048734672,0.103671886,0,1
0.005391806,0.03799153,0.112115465,0,1
0.046251908,0.06371213,0.1296325,0,1
0.07361682,0.10322381,0.15497205,0,1
-0.013255078,0.07755185,0.0903004,0,1
-0.081600994,0.22653198,0.09346864,0,1
-0.034199197,0.24047376,0.18979128,0,1
-0.03908191,-0.09124184,0.022640686,0,1
-0.11278087,-0.078508385,-0.141951,0,1
-0.16204987,0.14402102,-0.10312546,0,1
-0.29303807,0.09834764,-0.31756055,0,1
-0.31989568,0.16483018,-0.47595018,0,1
-0.24795109,0.39253324,-0.826941,0,1
-0.17870182,0.71213335,-1.0347849,0,1
-0.55498534,2.4174194,-1.1321383,0,1
-1.9332684,2.9943426,-1.6624628,0,1
-1.9893377,2.46963,-1.6823789,0,1
-1.2562077,2.1815042,-0.88030297,0,1
-0.95463645,2.2119894,-0.2298147,0,1
0.28735822,2.4216032,0.53071237,0,1
0.80868053,2.4124832,0.24118334,0,1
0.71183425,2.7940807,0.11934355,0,1
0.40945306,2.7824116,-0.091040865,0,1
0.2497065,2.267211,-0.22121309,0,1
0.013154745,0.56523705,-0.27534008,0,1
0.042588733,-0.40232182,-0.04394386,0,1
-0.10310428,-0.60816,0.022214338,0,1
-0.5005598,-1.3831167,-0.30355802,0,1
-0.46763623,-1.8277721,-0.39584956,0,1
-0.36250037,-2.2051883,-0.123361476,0,1
-0.28777966,-2.340434,0.31081834,0,1
-0.22358452,-2.380453,0.32174805,0,1
-0.15074147,-2.5392928,0.2125254,0,1
-0.02514822,-2.6498308,0.18670912,0,1
0.077719994,-3.0484114,0.28481737,0,1
0.07892036,-2.7457604,0.4857952,0,1
0.09038336,-2.3343072,0.5605477,0,1
0.28714848,-1.4910231,0.73409,0,1
0.32594568,-1.1492224,0.8983605,0,1
0.43747604,-0.47815317,0.8165532,0,1
0.26394817,0.04755692,0.7062178,0,1
0.28676435,0.48745924,0.8250039,0,1
0.46780112,0.985097,1.1835675,0,1
0.5948771,0.76153094,1.0658145,0,1
0.6160214,-0.021311695,0.94362986,0,1
0.4169162,-0.21253106,0.45674396,0,1
0.25936475,-0.17933369,-0.000552978,0,1
0.38957375,-0.19766237,-0.4604063,0,1
0.4831993,-0.09751701,-0.18621495,0,1
0.5282755,0.11337856,0.50362295,0,1
0.5606173,0.21640784,0.8039746,0,1
0.5577195,0.14473063,0.7890569,0,1
0.40780914,-0.14433476,0.32019383,0,1
0.24425334,-0.15904713,-6.65E-05,0,1
0.005243816,0.21809672,-0.36687878,0,1
0.008083858,0.24638651,-0.24893494,0,1
0.06921905,0.09504794,-0.12177874,0,1
0.13316286,0.018959055,0.116164334,0,1
0.12394597,0.064833656,0.19581419,0,1
0.08495276,0.03182984,0.08546354,0,1
0.104184516,-0.04388714,-0.026841667,0,1
0.100976005,0.02324677,0.047019728,0,1
0.020659855,0.033933647,0.12869957,0,1
0.013803664,0.00257874,0.07820837,0,1
0.02041607,0.032996178,0.017772334,0,1
-0.046749864,0.07306576,-0.006994081,0,1
-0.06415309,0.07666874,-0.029347612,0,1
-0.06117472,0.09092522,-0.002325727,0,1
-0.04559593,0.10016632,-0.010770066,0,1
-0.054088727,0.033461567,-0.0286943,0,1
-0.017696729,0.045297623,0.001569819,0,1
0.014375743,0.10665322,0.07861592,0,1
-0.008701712,0.10017491,0.20437987,0,1
-0.038245354,0.060111057,0.18945211,0,1
-0.11272915,0.032927513,0.05220183,0,1
-0.122138575,-0.014444361,-0.12441833,0,1
-0.107178845,-0.012104999,-0.16141878,0,1
-0.19155905,0.020246495,-0.14292797,0,1
-0.19508748,0.10001754,-0.077639736,0,1
-0.15954244,0.1450758,0.11077535,0,1
-0.10506827,0.04266834,-0.055156875,0,1
-0.09177211,0.03327274,-0.03556561,0,1
-0.10554509,0.00702858,0.038907275,0,1
-0.09296839,0.004512787,0.03985987,0,1
-0.035550218,0.045564655,0.11090587,0,1
-0.029667258,0.10686112,0.1903741,0,1
-0.029118754,0.07394124,0.1919538,0,1
-0.011134036,-0.035078052,-0.0408281,0,1
-0.022815427,-0.034404762,-0.14836109,0,1
-0.080525726,0.02927493,-0.1615574,0,1
-0.11150124,0.103429794,0.001635226,0,1
-0.07477761,0.07397175,0.076717995,0,1
-0.14639725,-0.06393719,0.10023434,0,1
-0.202844,-0.022812847,0.024505327,0,1
-0.25506335,0.11493969,0.047148608,0,1
-0.22481897,0.18706036,0.11764685,0,1
-0.25725147,0.10438347,0.095753126,0,1
-0.46057913,-0.016941082,-0.034049377,0,1
-0.44498348,0.097320534,-0.18113762,0,1
-0.49676338,0.25938126,-0.13184896,0,1
-0.37469038,0.082688324,0.029145142,0,1
-0.3258368,0.005871776,0.17389214,0,1
-0.248776,0.09756946,0.029159004,0,1
-0.27556726,0.16477774,-0.11393274,0,1
-0.25510812,-0.031030662,-0.027836869,0,1
0.61356556,0.45243263,-0.45020598,0,1
0.8912585,0.6590996,-0.74722195,0,1
0.3607014,0.40704152,-0.44836137,0,1
0.3978921,0.47282314,-0.20821303,0,1
1.358324,0.86864763,0.75444716,0,1
1.81467,0.183304,2.1727376,0,1
1.5100179,-0.04983792,2.040036,0,1
0.38959426,-0.632554,0.9304294,0,1
-0.054971904,-1.4589176,0.5959694,0,1
-0.5127928,-2.1889791,0.11550403,0,1
-0.10071063,0.5598631,0.2743151,0,1
-0.5297649,1.3862572,0.3020002,0,1
-0.7276182,-0.038277693,-0.91508204,0,1
-0.36162493,-0.5198327,-1.0032367,0,1
0.2806079,-0.16806793,-0.06472501,0,1
0.25537103,0.21751024,0.23807211,0,1
0.24521075,0.034638416,0.11686457,0,1
0.27211908,-0.9726887,0.341713,0,1
0.10314013,-1.3600063,0.34035105,0,1
-0.7779043,-0.047002845,-0.6619732,0,1
-1.1648011,1.5165623,-1.5800514,0,1
-0.8324518,1.2790602,-1.7704362,0,1
-0.47237408,0.37013713,-1.4331224,0,1
-0.60839766,0.005191714,-1.3665214,0,1
-0.7725513,0.40198123,-1.6113434,0,1
-0.5916502,0.79784006,-0.8334354,0,1
-0.5215788,0.37338445,-0.55767536,0,1
-0.6004891,-0.3980103,-0.8974166,0,1
-0.6202484,-0.45296678,-1.1077857,0,1
-0.64141595,-0.64244753,-1.0931643,0,1
-0.5939871,-0.8807736,-1.0661963,0,1
-0.55317914,-0.7999211,-1.1046373,0,1
-0.70306647,-0.6608687,-1.177658,0,1
-0.7192902,-0.6712466,-1.2925707,0,1
-0.42026556,-0.90751845,-1.3993533,0,1
-0.40792218,-0.66977227,-1.575222,0,1
-0.7014097,-0.36058152,-1.9350876,0,1
-0.5993571,0.12035168,-1.7300974,0,1
-0.20334552,0.19310467,-1.1639413,0,1
-0.1149641,0.41010088,-1.1269857,0,1
-0.595655,1.1296281,-1.5271254,0,1
-0.4756511,1.3730754,-1.6722523,0,1
0.9603823,2.776413,-0.6560594,0,1
1.5471323,4.48118,0.56399095,0,1
0.9099243,3.8313694,-0.5555306,0,1
0.6098042,-2.4049263,0.85717577,0,1
0.8262231,-3.127392,2.4359148,0,1
0.6592808,-0.5780476,3.1272314,0,1
0.42097342,-0.042936176,2.5190172,0,1
0.06566951,-0.8221168,1.1198902,0,1
-0.38866132,-0.93920416,0.72125584,0,1
-0.46427327,-1.103754,0.90795475,0,1
-0.49148685,-0.87443155,0.8249504,0,1
-0.64408207,-0.9328441,0.87651056,0,1
-1.0293411,-1.040205,0.4867084,0,1
-1.0341618,-1.2689133,-0.33329853,0,1
-1.2472353,-1.9861083,-0.5756838,0,1
-1.1397209,-2.188198,-1.1915122,0,1
-1.0772616,-1.3202688,-2.24773,0,1
-0.3886826,0.25782943,-3.9429328,0,1
1.9865735,1.7445203,1.7665223,0,1
2.0189955,2.9502165,4.9506745,0,1
0.16006815,3.373706,5.656313,0,1
1.0132078,2.6732504,5.611087,0,1
0.73902595,2.3097012,4.2246284,0,1
0.8513222,1.1183292,0.7747715,0,1
0.9548813,0.58710384,-0.29062963,0,1
1.2589195,-0.8315125,-1.5331297,0,1
1.8874873,-1.3398676,-1.7206882,0,1
3.023777,-1.2552814,-1.9583918,0,1
3.2841954,-0.3967047,-2.0750291,0,1
2.538097,-0.5544396,-2.406784,0,1
2.2331157,-1.0865556,-2.640082,0,1
2.559989,-2.361628,-2.2687876,0,1
1.5628982,-3.2595787,0.20464765,0,1
-1.1704102,2.654333,2.5261683,0,1
-1.2019981,3.4323168,1.1007946,0,1
0.2994588,-0.106097326,-1.9607695,0,1
0.2925979,-1.0673019,-2.2441225,0,1
-0.4712402,-0.9040585,-1.1650076,0,1
-1.858123,0.6079139,-0.32563123,0,1
-1.6933926,0.61012644,-0.8016382,0,1
-1.1867616,-0.25936425,-1.784833,0,1
-1.2262677,-0.39440358,-1.7663082,0,1
-1.2347115,0.097715296,-0.97088224,0,1
-0.07645494,-1.2092971,1.4402298,0,1
0.7658041,-1.5302237,1.961892,0,1
1.4737092,-0.64727396,0.9576768,0,1
2.1186047,-0.47732726,0.95494115,0,1
2.6770158,-0.16901104,0.32192945,0,1
3.3669403,0.056627296,-0.9162953,0,1
3.6227324,-0.645008,-0.58753973,0,1
4.066534,-2.4261122,-0.773121,0,1
4.2390156,-2.9420214,-1.2663745,0,1
3.1752625,-5.0901084,-1.5472873,0,1
-0.8092792,-3.4709334,-0.6954575,0,1
-2.2138638,-2.2759523,0.3635816,0,1
-2.0971398,-1.2848758,2.0054326,0,1
-2.7277274,-1.2868565,2.4813123,0,1
-2.0894384,-0.761506,2.415369,0,1
-1.3743476,-1.1353359,0.58684695,0,1
-2.2699287,-0.899498,1.3669012,0,1
-3.9510498,1.088215,3.8827705,0,1
-3.3882751,1.1979877,3.8699841,0,1
-1.3339763,-0.39302516,4.589471,0,1
1.2828254,-2.2256105,3.9418623,0,1
1.4266441,-0.53701764,3.1576006,0,1
-1.5581465,4.639907,3.6130273,0,1
-1.5995398,5.3070307,3.0673473,0,1
-0.5287863,4.458825,1.0544457,0,1
1.3933302,2.2629597,1.8423575,0,1
1.876673,2.30491,2.1315415,0,1
0.48577783,4.9863386,1.2553567,0,1
0.07380453,6.1777134,0.5230675,0,1
1.1074142,5.152278,-0.30811474,0,1
2.3759813,1.3663511,-0.49093136,0,1
3.0187643,-0.48975942,-0.5180513,0,1
2.8425448,-2.6826334,-0.89268833,0,1
2.0817034,-2.5722017,-1.0355332,0,1
1.0015419,-2.337237,-0.82332146,0,1
-0.03794837,-1.75033,-0.08724296,0,1
-0.2599216,-1.4061136,0.12784062,0,1
-0.6407816,-1.1225481,0.26323768,0,1
-0.8591174,-0.37780002,-0.025018148,0,1
-0.6856523,0.92528915,0.15303308,0,1
0.035482116,0.7151432,-0.2988848,0,1
-0.52156174,1.3040657,-0.46170032,0,1
-0.7629724,3.7273378,0.31727976,0,1
-0.47380966,3.8578033,0.53927565,0,1
-0.2398183,1.684825,0.3046641,0,1
-0.2034693,-0.3748436,-0.114479996,0,1
-0.24215972,-1.1451292,-0.26152408,0,1
-0.36415142,-2.3163028,-0.64837825,0,1
-0.37326607,-2.4629955,-0.72736084,0,1
-0.16836007,-1.7256727,-0.49712124,0,1
-0.22965518,-0.2593861,-0.28076878,0,1
-0.29680774,0.31692788,-0.27011117,0,1
-0.19672658,1.1559772,-0.58988845,0,1
-0.17164081,1.5383873,-0.7252726,0,1
-0.08186172,1.4484682,-0.5112618,0,1
0.26553893,0.3182516,-0.20578748,0,1
0.5581974,-0.2553177,-0.1708585,0,1
0.94650775,-1.1359806,-0.2163584,0,1
1.0015631,-1.3373537,-0.19659485,0,1
0.85774004,-1.1123714,-0.15667455,0,1
0.5059225,-0.4869299,-0.16737184,0,1
0.29374456,-0.13796902,-0.15849318,0,1
-0.02947544,0.43474197,-0.034521993,0,1
-0.13717487,0.5184307,0.014245425,0,1
-0.20854273,0.44563675,-0.10366909,0,1
-0.22021931,0.35465333,-0.24007064,0,1
-0.18793806,0.24748896,-0.25092417,0,1
-0.0933724,-0.026287096,-0.25340432,0,1
0.003455736,-0.15926076,-0.25087345,0,1
0.120354384,-0.28030968,-0.2431655,0,1
0.17992818,-0.18307306,-0.24736962,0,1
0.20856524,-0.086964615,-0.26471475,0,1
0.21308602,0.11634349,-0.22158524,0,1
0.20213209,0.17895985,-0.18358359,0,1
0.18336155,0.12773418,-0.14750855,0,1
0.18396787,-0.007449154,-0.14547716,0,1
0.14562266,-0.038390163,-0.14851522,0,1
0.079109296,-0.16445827,-0.13190135,0,1
0.09641139,-0.23357391,-0.15257482,0,1
0.028272033,-0.22718622,-0.19343074,0,1
-0.020018663,-0.03804876,-0.2270419,0,1
-0.017606355,0.07072733,-0.23958927,0,1
0.014451444,0.18782614,-0.21783353,0,1
0.008540221,0.19911955,-0.19067615,0,1
0.013306778,0.13571642,-0.15538165,0,1
0.065876104,-0.05066205,-0.14190228,0,1
0.09374148,-0.22210026,-0.1501532,0,1
0.15553266,-0.405591,-0.19956079,0,1
0.10385427,-0.3222475,-0.16386202,0,1
0.07079217,-0.16076946,-0.10314591,0,1
0.09846324,0.0842657,-0.17538098,0,1
0.05014339,0.21889113,-0.17779137,0,1
0.022499427,0.29384232,-0.12755062,0,1
0.022086676,0.2657385,-0.13002245,0,1
-0.008514795,0.1348295,-0.14354229,0,1
0.022267483,-0.07747651,-0.19092833,0,1
0.06126806,-0.1588011,-0.21886343,0,1
0.024835762,-0.18719484,-0.17210887,0,1
-0.001606114,-0.1338377,-0.13000828,0,1
0.000681661,-0.009091384,-0.11418369,0,1
-0.027054774,0.094147675,-0.14392573,0,1
-0.006147683,0.15576458,-0.1281125,0,1
0.016191036,0.16415596,-0.03901469,0,1
0.030909806,0.06888294,-0.048674874,0,1
0.09620308,-0.13270569,-0.10403427,0,1
0.0991452,-0.16374493,-0.14493598,0,1
0.08112207,-0.14854528,-0.18138982,0,1
0.026731856,-0.059907924,-0.21029603,0,1
0.007425018,0.012491216,-0.19232479,0,1
0.005199816,0.06796741,-0.16959538,0,1
0.027986381,0.024240484,-0.1636999,0,1
0.011494447,0.038038246,-0.14698789,0,1
-0.011456914,0.02181148,-0.10669415,0,1
-0.010780184,-0.010465628,-0.09245322,0,1
-0.02283638,-0.05619717,-0.08852788,0,1
-0.045541238,-0.02877999,-0.07452695,0,1
-0.061558936,-0.012915617,-0.07653212,0,1
-0.044992995,0.03917312,-0.10941211,0,1
-0.031462677,0.13165186,-0.14988036,0,1
-0.1512112,0.4969864,-0.13035889,0,1
-0.46500707,1.3016987,0.008458423,0,1
-0.8693129,1.5582876,0.1464391,0,1
-0.9916438,0.92034626,0.11994826,0,1
-0.83760065,0.7183132,0.033510815,0,1
-1.5060383,0.7541132,0.34745452,0,1
-1.8158714,-0.19035913,0.47759265,0,1
-1.6491203,-1.0722027,0.12718806,0,1
-0.8955853,-2.4659276,-0.3900706,0,1
-0.34830296,-2.40559,-0.25438884,0,1
-0.06055354,-0.2818117,-0.011150381,0,1
0.82079667,1.6388693,0.46478906,0,1
0.8079785,2.467023,1.0218328,0,1
-0.99792814,3.8432589,1.0400635,0,1
-1.2471048,3.7169733,0.68233097,0,1
-0.19836552,2.6161242,0.6055346,0,1
-1.7623994,1.6874133,1.7660954,0,1
-2.0834494,0.46774775,1.8993464,0,1
0.65627337,-1.74049,-0.25271776,0,1
0.8872379,-1.4541616,-1.0831078,0,1
0.7269616,0.24620341,-0.5621421,0,1
1.7988776,1.1327238,0.017440744,0,1
2.1403372,1.7464895,-0.2707257,0,1
2.054798,1.5979013,-0.8694159,0,1
1.9570532,0.8292837,-0.91534716,0,1
1.5968539,0.25201705,0.07732059,0,1
1.5141985,-0.76320165,0.9339084,0,1
1.8031311,-1.292859,1.5145484,0,1
1.3093299,-1.053828,2.970432,0,1
1.0058477,-0.65091014,3.565998,0,1
0.4123484,-0.00610618,3.3848124,0,1
-0.45263177,0.69305146,2.7949116,0,1
-0.67278403,1.0377303,2.8990974,0,1
-0.5281204,0.5361988,3.2250483,0,1
0.06408703,-0.27018815,3.2584705,0,1
1.5006757,-1.5364426,2.18002,0,1
1.5628206,-2.2045732,0.78402793,0,1
1.0626727,-2.3791542,0.4228469,0,1
-0.23243165,-2.344571,-0.13866629,0,1
-1.3407328,-2.7309394,-0.14038755,0,1
-2.9665902,-2.9055362,0.18478757,0,1
-1.8766546,-2.5478697,-1.3579504,0,1
-0.95169365,-2.1721718,-2.3806758,0,1
0.04911506,-1.3927662,-3.2647152,0,1
1.3477428,-0.781973,-2.5276146,0,1
0.88092595,1.9551896,-2.1903942,0,1
0.53690773,2.5587702,-2.1713011,0,1
1.168559,1.7850885,-0.95830643,0,1
2.5783882,1.4979649,-0.71791655,0,1
3.17051,1.9564896,-1.7791117,0,1
2.1033807,2.9283724,-2.3796954,0,1
0.7922221,2.7324162,-1.9664286,0,1
0.68804044,1.8675536,-1.7697997,0,1
-0.3461758,1.6645488,-1.6508992,0,1
-0.7554799,2.5851142,-2.041968,0,1
-0.39071506,2.2565763,-2.0859382,0,1
0.15665245,0.2549123,-1.6732506,0,1
0.28092867,-0.31257543,-1.6879735,0,1
0.79958963,-0.7463466,-2.1573205,0,1
0.9628727,-0.89678776,-2.3879337,0,1
1.2549167,-1.6752044,-2.401125,0,1
1.0056187,-2.066131,-1.9920954,0,1
0.53786355,-2.178646,-1.7153872,0,1
-0.1465299,-2.7702441,-1.0903755,0,1
-0.25020713,-2.9655218,-0.8113279,0,1
-0.25759974,-2.1106925,-0.8050882,0,1
-0.1808046,-0.5057822,-0.8077236,0,1
-0.27838588,-0.1680775,-0.38039494,0,1
-0.63290364,0.008507762,0.8446094,0,1
-0.62010455,-0.116882265,1.2541072,0,1
-1.2839631,-0.6308269,1.5405679,0,1
-1.5924537,-0.25451556,2.0932539,0,1
-1.5477924,-0.11721219,2.411562,0,1
-1.4495876,0.072903745,2.507059,0,1
-1.3378115,0.030292593,1.99054,0,1
0.4174874,0.1893559,0.6456387,0,1
0.5880612,1.1665449,0.5436885,0,1
-0.6326436,0.9132166,0.21604733,0,1
0.5278225,0.044202823,0.12510799,0,1
1.3539363,-0.46208382,-0.28120148,0,1
1.6551194,-1.1157722,-1.6761283,0,1
1.6596996,-1.2037039,-0.9318267,0,1
1.1918855,-1.2194042,-0.15582763,0,1
0.34446347,-0.7541618,1.2196399,0,1
0.23937741,-0.42248908,1.7002816,0,1
-0.18897584,-0.7281446,1.5252728,0,1
0.18836875,-0.7661485,0.86350894,0,1
0.47569692,-0.16170497,0.6255386,0,1
0.12312772,0.77452856,0.67325664,0,1
-0.29274404,0.8907938,0.542474,0,1
-0.2936498,1.1208563,-0.20910925,0,1
0.30432436,1.361474,-0.37688354,0,1
0.48064992,0.67846394,-0.10669771,0,1
0.6591352,-0.7100954,0.2146108,0,1
0.54614097,-0.50721455,0.19864632,0,1
0.18434927,0.3414631,0.0714497,0,1
0.0637427,0.27083874,0.085672416,0,1
-0.016189806,0.1616087,0.110572815,0,1
-0.2110036,0.12494278,0.101746835,0,1
-0.123014666,0.11375618,0.090291165,0,1
0.2474167,0.021911625,-0.041405138,0,1
0.37971875,-0.006951329,-0.08607371,0,1
0.27461877,0.008048059,-0.088105544,0,1
0.17278431,0.013105392,-0.06891434,0,1
0.13539237,0.01422024,-0.024325151,0,1
-0.074255496,-0.010967249,0.122840956,0,1
-0.14833345,0.055828102,0.1816623,0,1
-0.085383475,0.09299374,0.16254945,0,1
-0.014342882,0.08944703,0.14408112,0,1
-0.002540175,0.08847619,0.15243375,0,1
0.03605161,0.09098626,0.12278209,0,1
0.07603075,0.038192756,0.1230352,0,1
0.10395084,0.02479554,0.08383309,0,1
0.17025971,0.031958587,0.043010198,0,1
0.15981415,0.030794151,0.061464466,0,1
0.1542792,0.065476425,0.067331396,0,1
0.11466763,0.06640149,0.084523626,0,1
0.084359854,0.036544807,0.11140531,0,1
0.053477112,-0.05098056,0.11461467,0,1
0.044638995,-0.03608703,0.10115283,0,1
0.041314058,0.040980347,0.11198297,0,1
-0.01319319,0.083211906,0.15736604,0,1
-0.043848142,0.065175064,0.19520575,0,1
-0.048484385,0.04093362,0.25070748,0,1
-0.016769968,0.05113317,0.25259024,0,1
0.04655486,0.05972005,0.20992087,0,1
0.035777654,0.053668987,0.2113635,0,1
-0.010430515,0.055165302,0.23035835,0,1
-0.04739888,0.06342793,0.20642176,0,1
0.026756153,0.047189724,0.18476541,0,1
0.15726991,0.026815427,0.16132838,0,1
0.13378498,0.062190067,0.15197422,0,1
0.11113009,0.0504408,0.16251983,0,1
0.015336733,0.03520299,0.16914131,0,1
-0.010942128,0.036475193,0.17927562,0,1
0.000533056,0.063368805,0.15038344,0,1
0.058157973,0.077929504,0.11811592,0,1
0.072676875,0.0737629,0.1179501,0,1
0.061940584,0.06367398,0.1480987,0,1
0.034449887,0.044516575,0.15556952,0,1
-0.01458906,0.0380087,0.19024791,0,1
0.009335119,0.075515755,0.18744722,0,1
0.026343424,0.14676858,0.2255343,0,1
-0.12959385,0.33592418,0.37601045,0,1
-0.255714,0.41296962,0.4513938,0,1
-0.23797047,0.21325208,0.45449424,0,1
0.34453285,-0.27404115,0.43926042,0,1
0.5148306,-0.36813065,0.44279972,0,1
0.6463232,-0.21893689,0.3357107,0,1
0.621975,-0.042899102,0.28759098,0,1
0.34093428,0.22625545,0.3229031,0,1
-0.35242546,0.15782264,0.6365857,0,1
-0.8371749,-0.05286692,0.56914526,0,1
-1.3904557,0.02380941,0.12975723,0,1
-1.5712924,-0.01612956,-0.5930132,0,1
-1.4310236,-0.2570335,-2.1394734,0,1
-1.6389028,-0.10469453,-2.3326387,0,1
-1.9828737,-0.16535108,-2.3051717,0,1
-1.7605317,-0.5700514,-2.429318,0,1
-1.5657287,-0.69535846,-2.3202047,0,1
-1.825028,-1.1115772,-1.9246082,0,1
-1.5723295,-1.7136413,-2.4128642,0,1
-0.6751292,-2.0170963,-2.5929694,0,1
1.3489045,-2.372971,-2.3599486,0,1
2.0957947,-2.0870867,-2.2059906,0,1
3.0974846,-1.7164745,-1.8807856,0,1
2.373372,-2.1929655,-1.5054414,0,1
1.9267946,-1.6446886,-1.1168132,0,1
0.36083007,-0.73859316,-0.7352522,0,1
-0.5755256,-1.2059269,-0.59960973,0,1
-0.22091882,-1.627759,-0.39269263,1,0
1.7310715,-1.8287535,-0.015048494,1,0
2.0569441,-1.7329997,0.6698237,1,0
0.8559347,-0.9329471,0.25800353,1,0
0.5163195,-0.93993664,-0.14409073,1,0
1.2287171,-1.2077837,0.4768343,1,0
1.0258784,-0.39786237,0.94260603,1,0
0.831467,-0.4060077,0.6059861,1,0
1.3318584,-0.32811064,0.45146346,1,0
1.0789974,0.036583938,0.26744923,1,0
0.41022396,-0.5285616,-0.509841,1,0
1.0552279,-0.8862505,0.116556175,1,0
1.2615006,-0.86281586,-0.034980975,1,0
1.3435366,-1.0338049,0.005801765,1,0
0.6031953,-0.7482233,-0.010872409,1,0
-1.205746,0.30804348,0.39041874,1,0
-1.4156646,5.359725,1.7583492,1,0
-1.2305355,8.672,2.2682452,1,0
-0.79412293,16.010551,1.5530252,1,0
-0.89238834,15.246175,0.6789008,1,0
-0.35995,6.759366,2.86274,1,0
1.0669478,2.1321661,1.907304,1,0
1.5664678,0.20237836,1.1004575,1,0
1.3141366,-3.547783,0.12185973,1,0
1.0981433,-4.895444,0.44721094,1,0
2.7821836,-4.5648975,1.4931092,1,0
1.2329724,-4.443513,3.1248224,1,0
-0.27461874,-4.0173426,4.273241,1,0
-1.3146188,-1.4962145,6.6786118,1,0
-1.5993536,-0.27957398,8.116115,1,0
-2.3601234,1.2929453,7.6028166,1,0
-0.6912634,1.0229694,2.9079297,1,0
-0.057570755,0.67583376,1.5591085,1,0
-0.75718313,-0.71974087,0.21218954,1,0
-1.1923625,-1.6179705,-0.1857996,1,0
-0.64069843,-1.4745121,0.038466856,1,0
0.05972165,-0.68529314,1.4300524,1,0
0.014155328,-0.18567172,1.6154814,1,0
-0.1715408,0.35983565,0.4548822,1,0
-0.39067364,0.5807371,0.1895138,1,0
-1.0737273,0.8749819,0.007058404,1,0
-0.85011274,0.769473,-0.5335369,1,0
-0.4142476,0.80178446,-0.76643765,1,0
-0.21630895,0.47014517,-1.0856292,1,0
-0.23814498,0.020121498,-1.2678357,1,0
-0.18886015,-0.8958627,-1.9370923,1,0
-0.31457558,-1.0783883,-1.1616162,1,0
-0.6016937,-1.090354,-0.6387616,1,0
-0.73519164,-1.2500114,-0.4234766,1,0
-0.6335753,-0.9676733,-0.20359673,1,0
-1.0415596,-0.002196294,0.7255568,1,0
-0.92852426,0.39473823,0.7917942,1,0
-0.58139116,0.80805683,0.17845374,1,0
-0.31729478,1.0606642,-0.011009928,1,0
-0.2570032,0.83841324,0.30644757,1,0
0.06418066,0.18180084,0.039079104,1,0
0.27706337,-0.32763192,0.33315566,1,0
-0.035304934,-0.494091,0.5069191,1,0
-0.58267164,-0.62792873,-0.01602722,1,0
-0.5794543,-0.10838036,-0.58227277,1,0
-0.23980023,-0.005311026,-0.15418704,1,0
0.029107058,-0.13570403,0.12468168,1,0
0.23117593,0.20655157,0.18508348,1,0
0.14018957,0.45396328,0.057724856,1,0
0.059502494,0.34562016,-0.17874111,1,0
0.09206285,0.3819704,-0.28305426,1,0
-0.08087881,0.15946291,-0.2837877,1,0
-0.051160075,-0.0988207,-0.23284003,1,0
0.004212759,-0.31187534,-0.07746883,1,0
-0.017675608,-0.30484962,-0.028379532,1,0
-0.059141427,-0.26169205,-0.005965455,0,1
-0.09721783,-0.13982105,-0.003881098,0,1
-0.08943059,-0.059049603,0.1305925,0,1
-0.1557741,0.09318734,0.24510501,0,1
-0.1896135,0.17025375,0.15709606,0,1
-0.19094554,0.19382095,0.12569557,0,1
-0.21337669,0.052637104,0.15533252,0,1
-0.21221171,-0.000590322,0.13211948,0,1
-0.16703096,-0.0888958,0.060323246,0,1
-0.19326054,-0.13486767,-0.010916875,0,1
-0.15723227,-0.16445637,0.016553124,0,1
-0.101389945,-0.06814576,-0.05336749,0,1
-0.09797689,-0.03712464,-0.11705333,0,1
-0.06239646,0.075787544,0.003907782,0,1
-0.08677112,0.13107586,0.05248308,0,1
-0.1545614,0.10536671,0.034959383,0,1
-0.039418608,0.090756424,0.10581478,0,1
-0.049316887,0.10018254,0.1524797,0,1
-0.13584603,-0.015511513,0.04606194,0,1
-0.100568846,-0.09255314,0.0214431,0,1
-0.051279735,-0.1433487,0.042369425,0,1
-0.05018423,-0.055548668,0.01501938,0,1
-0.031862024,0.036171913,-0.009870062,0,1
-0.024295907,0.08642005,-0.060237296,0,1
-0.008100494,0.08349323,-0.016666507,0,1
-0.08062194,0.09366226,0.05053689,0,1
-0.16581194,-0.00436211,-0.001723983,0,1
-0.18782279,-0.03557778,-0.05331879,0,1
-0.21972674,-0.08188629,0.038572967,0,1
-0.25559822,-0.07929993,0.055197198,0,1
-0.28884745,-0.12909031,0.14165081,0,1
-0.24446313,-0.0949068,0.16786224,0,1
-0.19840999,-0.04144096,0.13082112,0,1
-0.11372488,0.017354013,0.07540947,0,1
-0.107649125,0.04277897,0.06892044,0,1
-0.17907591,0.16935635,0.005387592,0,1
-0.35570592,0.13249777,-0.22285496,0,1
-0.3873679,0.06689451,-0.28453347,0,1
-0.5574534,-0.36678413,-0.30058038,0,1
-0.8172153,-0.5025482,-0.0798161,0,1
-1.2465783,-0.60856724,0.5604141,0,1
-1.4473736,-0.91878796,0.6194042,0,1
-1.6341344,-1.0750408,0.7983432,0,1
-1.8436899,-1.6525774,0.91207767,0,1
-1.8395116,-1.9046068,0.999387,0,1
-1.995497,-2.168478,1.2179179,0,1
-1.6179751,-1.9247227,1.0194526,0,1
-1.2237148,-1.5460138,0.76309085,0,1
-0.7365812,-1.0998459,0.14510629,0,1
-0.34068722,-0.55301857,0.08898243,0,1
0.26504877,0.6661062,0.036381144,0,1
0.6426173,1.3644781,0.11541989,0,1
0.8377625,1.824976,0.08713602,0,1
1.1648532,1.9800005,-0.047381103,0,1
1.2054101,1.7219753,-0.21648891,0,1
1.0511265,1.1710119,-0.44119227,0,1
1.1428841,0.3941202,-1.1686088,0,1
1.0816985,-0.24327855,-1.2276785,0,1
1.0462666,-0.33899403,-0.57177365,0,1
1.1785138,0.058495518,-0.49983802,0,1
1.0059074,0.12058162,-0.5258262,0,1
0.39896178,-0.069173835,-0.53724337,0,1
0.68026996,0.09494875,-0.48131734,0,1
1.3691225,1.2286539,0.17512555,0,1
1.220777,1.5960722,0.5917982,0,1
0.69848275,1.7259885,1.0791925,0,1
0.32776195,2.1433516,1.422538,0,1
0.15927541,2.1847467,1.5189021,0,1
-0.08092928,2.26834,2.1286876,0,1
-0.043639004,2.241358,2.62488,0,1
0.4149472,2.7733757,2.5997736,0,1
1.1097144,3.2860394,1.2804741,0,1
0.8043851,3.3190653,1.8516812,0,1
-0.10239571,1.8997203,2.2807682,0,1
0.004912108,0.8098822,1.3976321,0,1
0.050384276,-0.77134323,0.3897434,0,1
-0.23820126,-0.42826936,0.4766729,0,1
-0.17160362,0.0863409,-0.07674838,0,1
-0.27935976,1.3549365,-1.5446618,0,1
-0.17192924,2.4956017,-1.9446532,0,1
-0.6306215,3.2317514,-1.2309856,0,1
-0.46346572,2.4480782,-0.9783955,0,1
-0.286282,2.1791477,-0.6163064,0,1
-0.47399685,0.7425785,-0.16172247,0,1
-0.42702764,0.15592286,-0.27837595,0,1
-0.28551614,-0.16456418,-0.60992897,0,1
-0.40548474,-0.5834513,-0.022845065,0,1
-0.4760449,-0.6323786,0.25935057,0,1
-0.03868155,-0.37417698,0.23897529,0,1
0.1904733,-0.51366806,0.24297827,0,1
-0.056212317,-0.92140865,0.16624834,0,1
-0.10035188,-1.3073149,-0.48104838,0,1
0.15922993,-1.6848192,-0.45496288,0,1
0.40521392,-2.2170534,0.14478329,0,1
0.30283102,-2.4821515,0.5069887,0,1
-0.3036609,-3.125947,1.2747059,0,1
-0.2935701,-4.292222,1.3103396,0,1
-0.036434814,-4.4275384,0.64560515,0,1
-0.021817625,-2.9372134,-1.6003077,0,1
0.120358944,-2.2497842,-2.2989457,0,1
0.20102763,-2.0038838,-0.9768312,0,1
-0.43734413,-1.5450344,-0.36965647,0,1
-0.6662164,-1.2360344,-0.73811626,0,1
-0.18416622,-0.7649861,-0.7412875,0,1
0.20300058,-0.26632503,-0.4100891,0,1
0.12872669,0.4390678,-0.32027277,0,1
-0.11009306,0.14109223,-1.4086021,0,1
-0.089359164,0.22093189,-2.0908654,0,1
0.031012714,0.5207881,-2.334405,0,1
-0.052075982,0.38286486,-1.6084228,0,1
-0.10951978,-0.23270608,-0.1079953,0,1
-0.06644961,0.084667206,0.044220243,0,1
-0.051227164,0.28211308,-0.15640764,0,1
0.050023653,0.22359467,-0.13915688,0,1
0.032302294,0.20816326,0.098296195,0,1
-0.024888154,0.09898854,0.17146412,0,1
-0.03276526,-0.000975597,0.22305793,0,1
-0.05013284,-0.013981794,0.4749162,0,1
-0.016076118,-0.027568774,0.78142023,0,1
-0.023825124,0.002959285,0.60377777,0,1
-0.04526811,0.18539715,0.02188086,0,1
0.053007215,0.2326212,-0.010572115,0,1
0.046971776,0.14488508,0.1363652,0,1
-0.14046109,-0.10251807,0.2946449,0,1
-0.1380625,-0.114711754,0.15132281,0,1
-0.004132122,-0.021256436,0.1883799,0,1
0.022736773,0.051122695,0.4969972,0,1
0.005783409,0.09124091,0.46985444,0,1
-0.008268356,0.032128345,0.21250212,0,1
-0.01066177,-0.018900862,0.15812792,0,1
-0.017758524,-0.023255344,0.065066755,0,1
-0.08749987,0.14698792,-0.054781232,0,1
-0.113509625,0.089779854,0.023536105,0,1
0.009091392,-0.04629419,0.40590203,0,1
0.08954013,-0.000337568,0.5603773,0,1
0.1782217,0.031084089,0.4300854,0,1
0.10264917,0.002281208,0.29428366,0,1
0.08026498,-0.04091547,0.3354074,0,1
0.06886217,0.018745441,0.2920762,0,1
0.05636239,0.023798956,0.22002676,0,1
0.041691624,0.051564224,0.10982095,0,1
0.034834716,0.121906295,0.20420904,0,1
0.002598792,0.1418152,0.267707,0,1
-0.054686464,0.037071235,0.13691929,0,1
-0.0902124,-0.03855896,0.065971166,0,1
-0.06997079,0.07433987,-0.016496398,0,1
0.056157712,0.11503889,0.21006314,0,1
0.10875122,0.1281624,0.2922572,0,1
-0.006961867,0.04244901,0.23661701,0,1
-0.069741815,0.001461033,0.095378995,0,1
0.00682658,0.118675224,-0.19005108,0,1
0.020195507,0.11534595,-0.16097559,0,1
-0.03948219,0.078600876,-0.07038329,0,1
-0.02566608,0.031739246,0.21945581,0,1
0.04100474,0.018379232,0.34464222,0,1
0.057009645,0.003076579,0.43370464,0,1
-0.004805669,0.012067823,0.5115508,0,1
0.000374928,0.06690791,0.53576714,0,1
0.013856649,0.16243556,0.46535015,0,1
0.024833024,0.10240367,0.46325794,0,1
-0.20793109,0.05180171,0.6315241,0,1
-0.30715603,-0.023308737,0.40706944,0,1
-0.25044358,-0.14971636,0.41533726,0,1
-0.16811997,-0.14819427,0.80148727,0,1
-0.12683433,-0.015762284,0.8654405,0,1
-0.17401692,0.018196136,0.59960425,0,1
-0.27661192,-0.2894373,0.34208485,0,1
-0.21342593,-0.22392748,0.46894217,0,1
-0.16429693,-0.064966165,0.74908465,0,1
-0.14876895,-0.10198017,0.7411761,0,1
-0.2943325,-0.146903,0.8312268,0,1
-0.25776044,-0.28797814,0.87084776,0,1
-0.20679632,-0.32638928,0.58135325,0,1
-0.40734166,-0.16375735,-0.3499497,0,1
-0.40528807,-0.2649327,-0.9310393,0,1
0.33473116,-2.1484942,-1.8179349,0,1
0.24328727,-2.5156353,2.456467,0,1
-0.018992424,-0.7892444,3.9080305,0,1
0.8011955,1.6082011,2.1665213,0,1
1.4882702,1.1820174,1.7067806,0,1
1.4834738,1.197552,4.1028376,0,1
0.2162478,2.6244233,5.8325577,0,1
0.53080773,3.415847,4.7803583,0,1
1.7223374,8.103427,2.5440984,0,1
0.8609946,9.666186,3.3985746,0,1
-0.62872994,2.3987496,5.3451214,0,1
-1.1847663,-5.701509,0.98366123,0,1
-1.3662281,-8.823998,-1.6844167,0,1
-1.2884715,-11.665574,-4.221689,0,1
-0.7357488,-10.241415,-4.7868166,0,1
0.29570013,-2.6077678,-3.0681875,0,1
0.16288573,9.459641,2.967017,0,1
0.08928251,14.753436,6.41669,0,1
-1.046263,15.320529,8.521785,0,1
-1.3355803,11.206515,6.234571,0,1
0.13655233,1.4120951,0.897403,0,1
0.44102156,-6.36626,2.6454823,0,1
-1.3677634,-10.250628,3.8314452,0,1
-6.0494246,-10.7862835,5.77889,0,1
-3.1865625,-8.857896,1.9115877,0,1
1.5241766,-6.463846,-2.2401958,0,1
2.361876,-1.5533831,-4.6421204,0,1
1.6552497,1.1091259,-5.8039255,0,1
-0.2703756,4.2276793,-2.730064,0,1
0.21253708,6.9464617,0.08159025,0,1
2.4472225,13.352262,4.5815682,0,1
1.4570986,10.808406,6.063663,0,1
0.21329355,6.7446113,6.1214037,0,1
-1.4795076,-2.0994995,3.710581,0,1
-1.6024203,-6.4632435,1.6857995,0,1
-0.4006062,-12.15931,-1.715583,0,1
1.2347952,-11.185275,-4.1566277,0,1
1.3849038,-9.685022,-5.5363045,0,1
-0.31564808,-6.433345,-6.2562704,0,1
-0.1571132,-3.046903,-5.43509,0,1
-0.30064026,10.660804,0.007807674,0,1
-1.290091,21.06326,5.0740404,0,1
-1.1308578,17.077366,4.8315244,0,1
-1.1367698,5.750656,2.1880631,0,1
-0.33023673,1.6026202,1.5709575,0,1
0.7283598,-8.326066,0.1526097,0,1
-0.24627548,-13.955924,-2.4913795,0,1
-0.21296269,-11.939236,-3.0631158,0,1
0.63125384,-7.8521543,-1.532721,0,1
0.19717458,-7.024605,-0.21986699,0,1
-0.25541878,-1.4044038,-2.7334244,0,1
0.7075181,5.4246936,-7.261389,0,1
0.7043102,7.089911,-6.2870107,0,1
0.84718657,10.140092,0.3594008,0,1
-0.01757431,9.454999,2.0074315,0,1
0.32268435,7.2581205,2.972579,0,1
1.4019879,2.4884484,4.232167,0,1
1.5271655,-0.005679869,3.2800307,0,1
0.8252273,-5.9443445,-0.3571285,0,1
0.10951388,-8.783939,-1.1730027,0,1
0.06017977,-12.240271,-1.7267944,0,1
0.12928486,-10.878273,-1.8691328,0,1
-0.671783,-8.272197,-2.4584558,0,1
-0.41882098,0.004826374,-2.9199266,0,1
1.4455013,6.319379,-2.6214612,0,1
3.0424118,15.005668,-2.3337693,0,1
0.94195807,10.746249,-1.3243734,0,1
1.4519958,10.278443,-0.47065297,0,1
3.8161063,6.7586145,-1.3727162,0,1
3.6239285,2.659814,-2.4273078,0,1
2.059085,-5.81107,-2.3944046,0,1
0.5660329,-12.519426,-1.5386556,0,1
0.2471135,-12.713673,-1.0106211,0,1
1.0191352,-9.555274,-0.8900255,0,1
0.42443645,-7.9666214,-1.901209,0,1
-2.839469,-2.5256255,-4.1839075,0,1
-6.816387,3.7644763,-7.1814265,0,1
-7.2354484,3.6883054,-6.543534,0,1
-3.395,3.5164707,-3.874303,0,1
0.3299116,7.4821725,-5.7405033,0,1
7.6334877,12.532905,-7.880906,0,1
5.1251025,9.673902,-8.186747,0,1
2.2765887,8.227973,-8.857846,0,1
0.86673784,3.8834672,-7.453955,0,1
1.6828692,0.76001614,-5.932798,0,1
0.7784507,-7.379692,-1.3752466,0,1
-4.0665846,-12.255184,0.97878355,0,1
-4.69941,-12.310228,1.4941937,0,1
-2.6464963,-9.295087,2.2768936,0,1
-1.2290155,-6.5667925,2.0091894,0,1
1.1933484,1.4124489,0.42335984,0,1
1.1339964,12.733123,-3.8725839,0,1
1.5410879,15.96897,-6.5440545,0,1
0.1635673,12.325322,-7.8239775,0,1
-1.2189611,9.9327135,-6.0968075,0,1
-1.5479755,1.7191857,-1.9097,0,1
-1.4391935,-9.198861,0.6435496,0,1
-1.1690965,-12.264353,1.6074567,0,1
-0.07897794,-10.344825,0.78013873,0,1
0.08550544,-8.490893,-0.50355375,0,1
1.2165914,-7.5506897,-1.742809,0,1
1.2388421,-1.5162839,2.34927,0,1
-1.2044241,2.526374,6.6828814,0,1
-2.8036447,7.504926,7.907545,0,1
-2.1047635,8.661939,3.0890725,0,1
-3.2061107,12.942714,-4.2996473,0,1
-1.5131736,8.880542,-7.9722114,0,1
-0.03844261,4.2053466,-8.054767,0,1
1.6615043,-3.7531922,-4.478528,0,1
2.0248115,-6.2506566,-2.0757403,0,1
0.2672931,-10.44598,1.6542882,0,1
-1.5077199,-11.45554,4.8821588,0,1
-1.2630835,-10.1624775,6.513043,0,1
-0.36771703,-6.416159,6.5804286,0,1
-1.3396313,-1.8239577,4.808167,0,1
0.094071,12.156695,-0.9072283,0,1
0.97297895,16.70404,-1.310194,0,1
0.5495214,14.077146,-0.5094012,0,1
-1.0101279,6.263978,-1.1570147,0,1
-1.0412483,2.1091938,-1.6514395,0,1
-1.2734313,-6.6986165,-0.9514518,0,1
-0.4069116,-12.074558,2.9573042,0,1
-0.29600537,-11.19539,3.0662134,0,1
0.31653017,-8.643522,1.354973,0,1
1.190856,-8.682246,1.1205425,0,1
-0.95775795,-3.267772,4.492559,0,1
-2.2629647,5.8803067,6.5386825,0,1
-1.2531912,6.955833,5.8553305,0,1
-1.9468799,6.33331,3.1703477,0,1
-3.252112,8.955829,0.39264667,0,1
-2.5736146,11.913041,-3.7671268,0,1
0.5073582,3.878126,-3.6085162,0,1
0.5992669,0.014644491,-2.6087413,0,1
-0.5184572,-6.692376,2.8894958,0,1
-1.0353682,-9.025686,5.661431,0,1
-1.4326994,-11.707809,3.9699814,0,1
-1.4291164,-9.664268,0.8978245,0,1
-1.5227454,-7.6906853,1.3216662,0,1
-0.57693374,-6.6892,2.2134762,0,1
-0.7319672,-4.405773,3.8507807,0,1
-0.4405762,6.0149865,5.458575,0,1
-0.13295007,11.711059,4.4800773,0,1
0.7966093,13.039601,4.6875944,0,1
-0.85554093,10.903834,2.119448,0,1
-0.6448031,10.076781,2.1026354,0,1
0.34383705,7.7825575,1.8463356,0,1
0.6365539,-0.6867904,0.76216954,0,1
0.76244724,-4.5122676,-0.076110646,0,1
0.18641758,-10.533887,-2.2613106,0,1
-1.3176485,-12.402252,-2.2012804,0,1
-5.2958593,-11.916227,-3.235512,0,1
-3.7310405,-8.260461,-4.6403875,0,1
-0.93190324,-5.0831666,-3.3468091,0,1
5.4717283,5.182245,2.98767,0,1
8.144222,8.95697,6.736235,0,1
5.038193,10.407149,6.5562744,0,1
0.47646984,13.463075,2.1352317,0,1
1.6520171,14.482097,3.3372846,0,1
0.4802137,8.373836,1.9045746,0,1
-0.87851274,2.2523232,-1.6587247,0,1
-2.8182974,-12.213979,-3.5219166,0,1
0.28905135,-15.458462,0.53949183,0,1
1.0943724,-13.346266,1.3036209,0,1
5.0320444,-10.367958,-5.6023893,0,1
21.468967,-7.3159237,-27.779152,0,1
28.290642,-5.956421,-30.865839,0,1
1.7804527,16.345448,3.2661617,0,1
-0.31033334,19.41793,0.31456822,0,1
-2.4475427,11.900636,-0.7842168,0,1
-1.2591596,9.138789,0.9765473,0,1
0.39093643,-0.10527404,2.754285,0,1
-0.8303024,-10.103866,-1.3109683,0,1
-1.6225898,-14.051014,-3.4742758,0,1
-1.4818313,-16.99698,-0.39102358,0,1
-1.3393068,-13.376915,-1.0117446,0,1
-0.97195995,-8.329962,-4.4710774,0,1
0.62182164,-0.5036843,-4.58119,0,1
1.6747669,6.2785826,-0.16532929,0,1
-0.8580713,17.239754,13.681605,0,1
-2.179204,17.841366,13.6175585,0,1
0.16393828,15.005584,7.797114,0,1
0.5723459,10.636094,3.750113,0,1
-0.21648812,4.0790663,1.3743993,0,1
-1.3988929,-10.529631,-2.5549915,0,1
-0.31461382,-14.48194,-4.0825224,0,1
0.5881989,-14.736433,-2.7318017,0,1
1.0725534,-12.911476,-1.2944219,0,1
0.48410758,-11.797683,-0.15077442,0,1
-1.8653219,-4.183543,1.9861214,0,1
-2.1792445,2.850648,2.2117229,0,1
-0.33327642,18.107254,1.2814944,0,1
0.044468604,18.845219,0.3742689,0,1
-0.3997568,15.371856,2.3145883,0,1
-0.71538174,7.0847907,4.650088,0,1
-0.44976807,1.427582,3.7176816,0,1
0.2874866,-9.517091,1.2567712,0,1
-0.74636316,-14.121098,-2.909257,0,1
-0.38511264,-14.43784,-4.6817923,0,1
0.40596557,-10.82698,-5.2354813,0,1
0.22236574,-6.7673345,-4.8587656,0,1
0.8011379,0.8158358,-3.1298962,0,1
0.31870723,7.382657,3.8246753,0,1
-1.2352521,12.335761,8.330561,0,1
-1.0092108,14.441222,8.38034,0,1
0.5271324,12.531886,5.112513,0,1
-0.23383445,7.26093,1.9902694,0,1
-2.2675638,-3.3974085,0.15229568,0,1
-1.6318445,-9.385681,-1.3431904,0,1
0.976688,-15.472385,-3.0528944,0,1
1.2480476,-14.141856,-2.9638789,0,1
0.32250506,-11.255549,-3.0380764,0,1
-0.11468403,-6.4989,-0.6318366,0,1
-0.64043474,-0.23166078,1.2318805,0,1
-0.25734562,16.686401,2.326706,0,1
0.2851306,20.552288,0.67088085,0,1
-0.57412,15.869248,0.88096035,0,1
-0.32133293,8.122939,4.073394,0,1
-0.029251814,3.1157858,3.8969467,0,1
0.5172732,-9.102952,0.92373747,0,1
-0.25870946,-13.654139,-1.027021,0,1
-0.37802142,-14.034704,-3.7639241,0,1
-0.04726845,-10.593328,-2.4161832,0,1
0.105375946,-8.528681,-1.2431195,0,1
0.7565745,-0.3789971,-4.3603697,0,1
0.4411013,2.2176805,-6.639281,0,1
-0.6338276,5.3271055,-2.1831536,0,1
0.94046116,15.786632,5.637297,0,1
1.4382691,16.123272,6.8469825,0,1
1.6604122,9.677396,3.1560705,0,1
1.8072255,6.4002924,1.0801237,0,1
0.8763221,-5.162747,-0.24615856,0,1
-1.077766,-12.817433,1.2294865,0,1
0.22313994,-13.236801,0.9858406,0,1
0.86549515,-10.645536,-2.6429029,0,1
-0.40149283,-9.0609045,-3.3201466,0,1
-1.6279684,-4.1503973,-2.6490047,0,1
2.651113,8.158681,-1.5787115,0,1
3.5708103,11.62003,-2.560134,0,1
-0.5214118,11.43588,-4.1445155,0,1
-0.72396123,12.491406,-3.0828257,0,1
3.903949,9.816579,-0.6036516,0,1
4.214896,1.4839973,-2.281872,0,1
4.146076,-2.968274,-2.8920128,0,1
3.8016438,-11.391656,-1.0826265,0,1
1.9967755,-14.211164,-1.3031062,0,1
-1.750816,-13.218174,-2.9642277,0,1
-0.83758503,-8.150447,-2.177128,0,1
-1.5916779,-5.167093,-2.1641667,0,1
-4.6678176,1.2583262,-4.9426174,0,1
-4.2954454,2.7965865,-5.2148848,0,1
-0.35236216,4.0329638,-2.7304633,0,1
-0.78123415,7.451737,-4.684163,0,1
-1.1072143,10.363889,-6.967837,0,1
2.8454463,12.1013155,-7.1901054,0,1
4.095347,10.258311,-5.8554945,0,1
0.41727817,6.654061,-5.108849,0,1
-1.4387065,-0.01722833,-3.1107821,0,1
-0.9607781,-5.047264,-0.9472535,0,1
-1.0505404,-12.447205,2.75294,0,1
-1.0728483,-13.6507435,2.9487681,0,1
-0.17086256,-11.705658,2.1096594,0,1
0.8074029,-7.108737,1.4209365,0,1
1.974435,-3.2344422,-0.009681596,0,1
2.1521258,8.87503,-4.465778,0,1
1.3177353,14.05407,-6.253853,0,1
-11.195995,16.158482,-11.003755,0,1
-11.936556,-2.0478442,-16.402767,0,1
-2.8224816,-3.3600233,-11.4904995,0,1
-1.6973981,-5.427892,-3.3537087,0,1
-1.5351979,-10.246126,-0.66716665,0,1
0.14190799,-13.251932,1.3590046,0,1
-0.44358692,-8.759836,0.99834317,0,1
-0.32903257,-7.742697,0.7119922,0,1
-0.91975653,-3.0713422,3.4829392,0,1
-2.690067,0.28675205,6.166587,0,1
-2.170291,4.3479857,5.2652965,0,1
-0.32934755,8.150653,-1.3321407,0,1
-0.8955118,9.779382,-1.9973408,0,1
-4.2614803,13.180673,-4.1625032,0,1
-3.4810674,11.815852,-6.203548,0,1
0.12762845,3.2969635,-4.8083096,0,1
1.3240784,-6.1918306,-0.7420183,0,1
0.99938226,-9.443152,0.01637194,0,1
-0.7783798,-11.474982,1.744445,0,1
-0.92854524,-11.130381,2.844763,0,1
-0.002763152,-11.012983,3.5608022,0,1
0.44475073,-6.7314234,3.7977846,0,1
-0.29784608,-0.62340814,3.4604068,0,1
-0.30613905,11.570802,1.6974593,0,1
0.041696012,12.970277,1.0784907,0,1
0.5954943,11.24496,1.201135,0,1
-0.3257537,10.015033,-0.39991164,0,1
-1.3032027,6.3792315,-1.568874,0,1
-0.5493263,-2.2245731,-1.7518879,0,1
0.28046337,-5.215928,-0.4525299,0,1
0.4591707,-9.13911,0.67770493,0,1
0.9520354,-11.741926,-0.34837645,0,1
0.59536755,-10.681749,1.1109927,0,1
-1.0591604,-1.9449669,5.8668933,0,1
-1.47701,2.6304927,7.3930373,0,1
-1.2654712,5.4822507,6.1920447,0,1
-0.327389,4.873637,0.26786044,0,1
0.11166251,4.874236,-1.7458229,0,1
-0.007956862,4.644684,-2.4173748,0,1
-0.53869665,4.0553703,-2.2379844,0,1
-0.85787547,0.36795604,-2.0634234,0,1
-0.41039175,-3.456242,-0.20020084,0,1
-0.48439372,-5.040871,0.36945826,0,1
0.34708127,-6.811697,-0.9996875,0,1
1.1764768,-6.209143,-1.7953223,0,1
1.2326295,-1.9331722,-0.8863164,0,1
-0.54341197,2.9418201,1.5501549,0,1
-0.7061043,4.362715,4.1459513,0,1
-1.1191311,4.791429,8.071786,0,1
-0.98465085,3.3956892,6.6207414,0,1
1.7563019,2.164092,0.93308914,0,1
2.1516273,3.6213703,-1.5353589,0,1
1.2892721,2.8362541,-1.3469607,0,1
-0.13357788,-1.4557991,0.10760568,0,1
-0.186493,-3.3517766,0.74731445,0,1
0.7425667,-4.456377,0.67357576,0,1
1.4662433,-3.137434,-0.9568431,0,1
1.417297,-2.0449915,-1.7962581,0,1
1.2485154,-0.63263905,-2.2970185,0,1
1.3853253,-0.6488753,-1.8709176,0,1
1.0300124,0.94645023,-0.73297256,0,1
0.6814108,3.8726292,-0.42190337,0,1
0.4203614,4.678174,0.37563673,0,1
-0.84534025,4.0424547,4.328193,0,1
-0.5950326,1.4219534,4.4646406,0,1
-0.38319302,-3.2319324,2.4973936,0,1
-1.7842019,-2.156232,3.8834138,0,1
-2.345796,-0.80202276,4.5001493,0,1
-2.336279,0.21393695,3.673161,0,1
-2.1527257,0.3549138,2.6822178,0,1
-1.7696772,0.3907547,0.60978043,0,1
-1.3967828,0.2668638,0.011124269,0,1
-1.2316746,0.23704717,-0.006282256,0,1
-1.0345968,0.32575223,0.057441432,0,1
-0.8850535,0.3152437,-0.209053,0,1
-0.45928842,-0.37180716,-0.8098111,0,1
-0.39937842,-0.56219584,-0.57339555,0,1
-0.3452987,-0.5626574,-0.542757,0,1
0.25846666,-0.18178752,-0.6547493,0,1
0.68559265,0.16942689,-0.6721524,0,1
0.8295448,-0.45753193,-0.15488644,0,1
0.12939985,-1.6158543,0.9773379,0,1
-0.12984082,-1.2357157,1.2766402,0,1
-0.9386611,1.7943239,0.48340982,0,1
-1.5656011,2.3254738,0.22417308,0,1
-1.1784179,0.045856472,0.3715497,0,1
1.3789873,-1.3535002,1.0118579,0,1
2.4726384,-0.2943362,1.3443027,0,1
2.0711105,2.819193,0.66611516,0,1
0.9621449,2.9854965,-0.13994296,0,1
-0.39155576,0.66275024,0.43498477,0,1
-0.07079476,-1.5728034,1.3155559,0,1
0.3338507,-1.684821,1.2352821,0,1
-0.000197351,-1.7271603,1.6891192,0,1
-0.81680363,-1.4879168,1.7516456,0,1
-1.8205467,0.43238068,0.7583599,0,1
-1.157403,0.74900246,-0.04494594,0,1
-0.7282117,0.28646562,-0.395965,0,1
-0.3468898,0.20185943,-0.65602237,0,1
-0.7188307,0.0531835,-0.70010054,0,1
-1.1220645,0.10766308,-0.9677168,0,1
-0.332251,-0.43441015,-1.1938397,0,1
-0.3927223,-0.42355257,-1.0880028,0,1
-2.1998453,0.5373601,-1.6589953,0,1
-2.6221128,1.8845423,-2.0040283,0,1
-2.618775,3.5744836,-1.794991,0,1
-2.4251354,1.9748963,-1.8747858,0,1
-2.1048908,1.1937884,-2.0163383,0,1
-1.2618333,-1.2852813,-2.0615323,0,1
-0.070768476,-2.5844445,-1.8230616,0,1
1.7928131,-3.8317757,-0.51497465,0,1
0.23535897,-5.6688957,-0.059873953,0,1
-0.555808,-5.9512434,0.057102624,0,1
0.16145079,-2.6919408,0.6188135,0,1
0.85049033,-0.30908668,1.6558807,0,1
1.6294742,3.6405137,3.265594,0,1
3.3557458,6.532434,3.4064972,0,1
3.6368885,7.071155,3.3019629,0,1
1.9378881,4.9178934,2.1154473,0,1
0.7429378,3.0362806,1.6119238,0,1
-0.6073311,0.031175654,0.9663899,0,1
-1.0126402,-2.9647074,1.1697985,0,1
-1.4461609,-4.0560865,1.0396085,0,1
-2.028622,-4.121113,0.19464004,0,1
-2.1311255,-4.1450877,-0.11597032,0,1
-1.4330518,-4.298794,-0.56068695,0,1
-0.1224758,-4.455802,-1.8433431,0,1
0.49072433,-3.9366505,-3.2995152,0,1
2.0918999,-2.0752366,-4.2891216,0,1
2.5074463,-0.7861119,-2.5552406,0,1
4.354276,3.3587658,2.3698246,0,1
4.9794307,9.142053,6.3117723,0,1
4.385123,10.724645,6.860139,0,1
2.5940197,8.446107,6.3742423,0,1
1.9852247,6.4437976,6.0219393,0,1
0.64863974,2.8718026,3.8477898,0,1
-1.1728697,-1.8648763,-0.40785164,0,1
-1.5327681,-5.0537047,-1.4529209,0,1
-1.4292434,-11.470501,-2.2544765,0,1
-0.9838598,-12.856438,-2.5561085,0,1
0.44770837,-10.737764,-2.3210235,0,1
1.1690569,-6.0767164,-0.52437025,0,1
0.63596976,-2.7072544,1.6410139,0,1
-1.530558,10.144477,5.5113626,0,1
-0.9152652,16.066006,5.6203537,0,1
-0.613538,16.908287,4.777588,0,1
-0.8449161,11.434798,3.4147632,0,1
0.23687828,7.2031374,2.0993347,0,1
0.55930406,-3.4094558,0.68610907,0,1
0.10070946,-8.47987,0.1417797,0,1
-1.361102,-13.752066,-1.300608,0,1
-0.94694406,-11.660732,-2.4949305,0,1
-0.37541682,-10.074423,-2.3303118,0,1
0.12698972,-6.011501,-3.4110641,0,1
0.86866117,-2.8223946,-4.5317364,0,1
1.8432449,2.9809055,-2.460304,0,1
1.5450745,10.201211,3.4952128,0,1
1.5709809,12.667851,4.8788977,0,1
1.5705194,13.955897,5.881513,0,1
0.51654303,13.091165,6.5826497,0,1
-0.89731336,6.212476,4.359575,0,1
-0.646134,-6.9519386,0.40000206,0,1
-0.3823006,-11.795921,-1.8894312,0,1
0.7099024,-13.669685,-4.21993,0,1
0.67719436,-12.546118,-4.124594,0,1
0.30806124,-11.686354,-3.0166633,0,1
-0.5767,-8.853207,-0.34547946,0,1
-0.79919285,-3.8902678,1.141402,0,1
-0.38787138,11.563573,2.0450363,0,1
0.7131038,16.730766,0.80620295,0,1
1.0394392,14.846099,-0.5567584,0,1
-0.14588314,12.533147,1.2438943,0,1
-0.12678993,9.517858,2.0366142,0,1
0.1181891,-1.612585,1.6651365,0,1
0.25224736,-6.9590826,0.5308722,0,1
-0.5149944,-13.923914,-2.296524,0,1
-0.91922015,-14.831309,-5.2452197,0,1
-0.85916877,-11.868656,-5.944913,0,1
1.7703416,-2.916309,-6.7589717,0,1
2.968123,-0.608639,-5.705492,0,1
1.1811473,3.736967,0.39955965,0,1
0.41263306,11.75254,5.72082,0,1
0.97858465,12.835132,6.5704026,0,1
1.9214948,12.105752,4.522326,0,1
1.7084941,10.673041,3.385822,0,1
1.2170188,1.8771421,1.3429986,0,1
0.48717815,-9.951528,-0.7977368,0,1
0.20261922,-13.861576,-1.0258397,0,1
-0.13024852,-13.670613,-1.5440328,0,1
-0.65034676,-12.029596,-2.5088081,0,1
-2.1446564,-8.186783,-3.041568,0,1
0.15837353,2.0356607,-1.8294172,0,1
2.0287924,8.384358,-2.1975179,0,1
1.9380902,12.753715,-4.0213585,0,1
0.9226536,11.414903,-2.9018815,0,1
2.1619992,8.828357,-0.47275698,0,1
2.922077,4.0947485,-0.90031385,0,1
3.0243099,0.70860106,-0.39638242,0,1
3.4975767,-5.678456,0.60476923,0,1
3.0093226,-7.7790556,-0.047263607,0,1
0.62782425,-8.967948,-3.0406806,0,1
-3.800472,-5.674768,-6.4613023,0,1
-6.3892155,-3.0820012,-6.877866,0,1
-6.4327345,1.1780249,-4.9718213,0,1
-3.5262675,2.734288,-3.9103618,0,1
1.1444728,4.9564476,-2.6845315,0,1
0.8754835,6.4972773,-3.4034548,0,1
0.5379945,5.926652,-3.279246,0,1
0.34637815,1.9695796,-1.9678216,0,1
0.40311667,-0.7320481,-1.3555806,0,1
0.4001577,-5.062035,-0.73907775,0,1
0.025318801,-5.4112973,-0.8429369,0,1
-0.24281368,-4.3144555,-1.2217007,0,1
-0.8834054,-1.8472768,-2.4061766,0,1
-1.041735,-0.62560385,-2.9639804,0,1
-0.42806792,1.4789093,-3.472155,0,1
-0.13946068,1.4661558,-3.768412,0,1
-0.61415386,1.5049446,-3.5382826,0,1
-1.4560055,1.588415,-2.2671368,0,1
-1.9037323,1.2886952,-1.9056734,0,1
-2.4036233,0.73551744,0.3535851,0,1
-1.1210909,-0.1353787,2.793525,0,1
0.23136163,-0.3088349,2.2688277,0,1
2.532416,1.001853,-0.3298453,0,1
1.8622115,1.2737169,-0.6283407,0,1
-0.80727994,0.46014124,1.217605,0,1
-0.86165005,-0.27371684,2.2110894,0,1
-0.21445346,-0.54187,1.7311552,0,1
0.3155428,-0.7089348,0.26922038,0,1
0.0790295,-0.5535631,-0.10999146,0,1
-0.07473765,-0.4446545,-0.35658723,0,1
0.2582995,-1.0153208,-0.24551478,0,1
0.42815363,-1.1841164,0.046010677,0,1
0.13363777,-0.7824421,-0.49097335,0,1
-0.25109512,-0.8092976,-1.3029128,0,1
0.19268078,0.3265275,-1.9424323,0,1
0.37058944,1.2445916,-1.3149807,0,1
0.5666817,0.9313144,-0.9472661,0,1
0.8153181,1.7102394,-0.002615558,0,1
0.08796227,3.1473799,1.3463938,0,1
-0.83842343,2.6104794,2.323572,0,1
-0.18601015,-0.4377374,1.2972641,0,1
-0.61776894,-1.1622514,2.0920246,0,1
-1.3679183,-1.4131306,3.4874654,0,1
-1.4310284,-0.78534013,3.4309735,0,1
-0.7838831,-0.6489743,2.5776064,0,1
-0.58847123,-0.81593025,1.9020088,0,1
-0.64278126,-0.44464293,1.6873475,0,1
-0.56542057,-0.5877103,1.0137372,0,1
-0.6060302,-0.8389225,0.4240055,0,1
-0.6910881,-0.6530276,-0.7119368,0,1
-0.6947938,-0.037703585,-1.0049405,0,1
-0.6775576,-0.06969554,-0.97602683,0,1
-0.6967862,-0.33925253,-0.8603322,0,1
-0.86431,-0.34320742,-0.74145204,0,1
-1.2155311,0.08288854,-0.628047,0,1
-1.0903044,0.29016104,-1.2005612,0,1
-0.95447576,0.18642606,-1.5545851,0,1
-0.28236765,0.27543437,-1.7840277,0,1
0.39862734,0.98397434,-1.8481542,0,1
0.39506197,2.7564201,-0.90846145,0,1
-0.83627146,1.93071,2.8592472,0,1
-0.8722477,0.4734337,3.846402,0,1
0.50626516,-1.5747517,2.4457705,0,1
1.018715,-0.8728541,1.4328567,0,1
0.8845321,1.4432173,0.7256562,0,1
0.8174097,0.8668223,0.27787852,0,1
0.7213779,0.07233146,0.28770638,0,1
0.4168718,-0.5901899,0.4401365,0,1
0.38960478,-0.770997,0.49280262,0,1
0.35496888,-1.5489149,0.56635743,0,1
0.22564179,-1.6554594,-0.071546055,0,1
0.11773509,-1.4214478,-0.5930773,0,1
0.053984642,-1.1087914,-0.9949098,0,1
0.32253915,-0.7906123,-0.9622254,0,1
0.5519545,0.31190297,-0.8543018,0,1
0.603075,1.2136393,-0.79523486,0,1
0.7210413,1.3667593,-1.025895,0,1
1.278463,2.1298504,-0.9790843,0,1
0.8133029,2.9823923,0.43459392,0,1
-0.31153786,1.9435235,3.2112536,0,1
-0.14743751,-0.7860707,2.2570953,0,1
-0.3492859,-1.4948767,1.7402953,0,1
-0.8086656,-1.8280653,2.4870756,0,1
-0.9985834,-1.122343,2.7639232,0,1
-1.0145109,-0.20913975,1.7061031,0,1
-0.74865645,-0.058325756,0.4929502,0,1
-0.6116847,0.069140434,0.26331753,0,1
-0.37428606,-0.36925125,-0.072470605,0,1
-0.36537057,-0.55871487,-0.3906004,0,1
-0.45888302,-0.23072822,-1.2229818,0,1
-0.3426931,-0.24739274,-1.410696,0,1
-0.2943184,-0.5233374,-1.3260262,0,1
-0.5319646,-0.9209395,-0.9379459,0,1
-0.7212595,-0.9849635,-0.68987095,0,1
-1.0630889,-0.76767737,-0.7980266,0,1
-0.8846707,0.06533612,-1.5652909,0,1
-0.29912418,0.5896977,-1.6185302,0,1
0.34205496,2.4180403,-1.0001637,0,1
0.063055545,3.3971348,-0.87155944,0,1
-0.6722545,2.7948027,1.2879133,0,1
-0.3413974,-0.457753,3.2100773,0,1
0.3654657,-1.5426968,2.7573931,0,1
1.7578312,-0.6563395,1.213486,0,1
1.7031525,0.60491574,0.9552893,0,1
0.74789894,1.4291525,0.6533609,0,1
0.9358937,0.22587682,0.01960568,0,1
0.8738481,-0.5057039,-0.19171351,0,1
0.38014707,-1.7976255,-0.1957747,0,1
0.4681154,-2.0693026,-0.122843705,0,1
0.78676367,-1.4123249,-0.57709295,0,1
0.6073004,-0.46874243,-1.0766032,0,1
0.69447285,-0.3788405,-1.1029041,0,1
1.0640595,-0.8289328,-1.9018329,0,1
0.9544905,-1.2550527,-2.6131253,0,1
0.9514371,-1.3371708,-4.1571784,0,1
0.48211777,-0.23147036,-4.844306,0,1
0.39887416,0.6179273,-4.26067,0,1
0.7547536,1.6591939,-1.7529792,0,1
0.98371303,1.8026743,-0.7589009,0,1
1.7996404,2.6250277,-0.08211627,0,1
2.185052,2.704959,-0.16145195,0,1
1.8360656,2.4355621,0.1234742,0,1
-0.4292006,5.3518686,2.6032908,0,1
-1.0839846,5.8181295,1.0968055,1,0
-2.18489,-2.717685,-5.562849,1,0
-3.6198635,-5.589334,-2.6526103,1,0
-3.5988302,-3.839167,-0.560678,1,0
-0.6458703,-1.4444331,2.3665419,1,0
0.48291677,-1.5112094,2.8325002,1,0
0.7796562,-2.7320082,2.8006606,1,0
2.2942724,-2.803823,0.31293195,1,0
1.3290442,-1.2249918,0.061742708,1,0
-2.9017086,1.8343954,0.64814126,1,0
-3.0027294,2.3445663,-0.000872353,1,0
1.2627218,0.76378244,-1.6655486,1,0
2.4512026,-3.0261555,-2.7315543,1,0
1.3348181,-3.7552996,-2.295905,1,0
1.4052026,-6.6267376,1.4020711,1,0
2.1434715,-8.274214,3.1479492,1,0
0.82525504,-8.272963,2.971293,1,0
0.3458949,-6.123211,2.1742525,1,0
0.5719915,-4.398872,2.0477524,1,0
-0.11638996,-4.605807,1.1542356,1,0
-0.12732795,-5.2246795,0.42326248,1,0
-0.38517237,-3.2125926,-0.63393265,1,0
0.83649534,-4.2346983,0.09720145,1,0
2.0301256,-5.597713,1.7946396,1,0
-0.79610217,-8.266491,3.314858,1,0
-3.9213765,-7.129514,3.0008135,1,0
-5.0880537,1.4743652,2.2544503,1,0
-2.240869,7.078342,7.281427,1,0
-2.224847,12.593332,10.940831,1,0
0.13712049,28.303284,7.781495,1,0
1.2636856,27.63499,2.226266,1,0
2.0717738,11.864326,-2.221748,1,0
0.6972219,4.467889,-0.22181663,1,0
0.036481857,3.907486,-0.09754438,1,0
1.0279337,2.2136943,-4.1540213,1,0
1.5893774,0.15643576,-4.488778,1,0
5.675791,-2.3427393,0.52764297,1,0
4.050332,-6.1215663,4.186855,1,0
-0.6031736,-6.851412,5.9610744,1,0
-3.1676702,-6.3751917,4.086402,1,0
-3.1752157,-5.864934,1.4609966,1,0
-1.7895252,-6.866536,0.67159325,1,0
-0.17894079,-4.777679,0.5897539,1,0
-1.0065309,-2.2377615,0.33189243,1,0
0.047210895,-0.13308427,0.46345672,1,0
0.0901296,0.6342068,0.063932665,1,0
-0.42217022,2.8851671,-0.5278879,1,0
-1.3165758,6.6755877,0.56641454,1,0
-1.8807284,7.4417734,1.3677742,1,0
-1.5892982,5.1037893,1.6165978,1,0
-1.567779,3.7844057,1.2569945,1,0
-1.6998367,0.7843046,0.6156503,1,0
-0.42424518,-2.728507,-0.002102389,1,0
0.35661197,-3.7350082,-0.7454738,1,0
1.2720592,-3.905239,-2.1715877,1,0
0.94319344,-3.0780087,-1.6134101,1,0
-0.9264277,-0.9529496,-0.22260654,1,0
-0.8998494,0.044814087,-0.07014924,1,0
-0.06427855,0.23359773,-0.52826124,1,0
1.2906001,0.85623926,-1.5334353,1,0
1.5327619,1.2992697,-1.4941422,1,0
1.7834285,1.4234772,-1.1414174,1,0
1.6929718,0.9676618,-1.2274995,1,0
1.4704703,0.75154394,-1.1331499,1,0
0.42034394,-0.41712666,-0.13340886,0,1
-0.3939749,-1.0143366,0.25328332,0,1
-0.5463265,-0.7766037,-0.03576912,0,1
-0.62488174,-0.015774775,-0.63131493,0,1
-0.97586334,0.025055844,-0.37369713,0,1
-0.8969369,-0.033069618,0.22978972,0,1
-0.7272203,-0.035227776,0.27612007,0,1
-0.3242238,-0.0871582,0.14111167,0,1
0.31076643,-0.039973263,-0.17825633,0,1
0.43420547,0.018525124,-0.18196511,0,1
0.23894721,0.25484562,0.14829488,0,1
0.1462885,0.32231048,0.2775101,0,1
0.011426665,0.43848613,0.28696525,0,1
-0.22281161,0.3819151,0.15133739,0,1
-0.29494756,0.2591524,0.054365214,0,1
-0.32938406,0.002375587,-0.15391865,0,1
-0.3331934,-0.101859115,-0.27000144,0,1
-0.28209534,-0.3031855,-0.40353346,0,1
-0.08813594,-0.45413306,-0.33598912,0,1
0.03293089,-0.43577865,-0.28149623,0,1
0.258301,-0.16979218,-0.21263973,0,1
0.31364864,-0.030550007,-0.19373208,0,1
0.3053331,0.124448776,-0.14668551,0,1
0.2444238,0.19850826,-0.091078974,0,1
0.1450901,0.22297764,-0.054975834,0,1
-0.04409968,0.18909168,0.025721816,0,1
-0.10987911,0.14853,0.046194088,0,1
-0.19676578,0.05805397,0.048685793,0,1
-0.15248819,-0.040307045,0.06272191,0,1
-0.095623165,-0.06531048,0.06885066,0,1
0.003712656,-0.06355762,0.07420359,0,1
0.04408803,-0.032462116,0.06756305,0,1
0.03604698,0.005476957,0.08648607,0,1
-0.028785096,0.061102867,0.031641364,0,1
-0.05024545,0.102698326,-0.013091077,0,1
-0.06846753,0.15048885,-0.08483089,0,1
-0.070719585,0.16005419,-0.1206737,0,1
-0.0851057,0.05878543,-0.0947818,0,1
-0.03494315,-0.089152336,-0.031047272,0,1
0.006337257,-0.117134094,-0.048171643,0,1
0.06584307,-0.06761837,-0.077001676,0,1
0.06577908,-0.06141377,-0.07418946,0,1
0.054578748,-0.09155846,-0.010891292,0,1
0.00596369,0.011340144,0.047129575,0,1
-0.003820937,0.09065056,0.06310628,0,1
-0.027212827,0.17331696,0.040830884,0,1
-0.01837235,0.18534946,0.03547285,0,1
-0.023766205,0.12877369,0.052728295,0,1
-0.03424166,0.057442665,-0.018779162,0,1
-0.033929095,0.09812831,-0.061113726,0,1
0.007124629,0.057494164,-0.028655367,0,1
0.015416309,-0.05833149,0.027202336,0,1
-0.079754725,-0.25282383,0.06735931,0,1
-0.12382771,-0.14038658,-0.017712817,0,1
-0.07215211,-0.087935455,-0.07415381,0,1
0.04883673,-0.12306309,-0.08265786,0,1
0.05333703,-0.056316376,-0.009890561,0,1
0.03003693,0.06614495,0.113907196,0,1
0.021953557,-0.00579357,0.019901147,0,1
-0.002022032,0.002243995,-0.015267003,0,1
-0.046898436,0.10444164,0.011541139,0,1
-0.04284469,0.18334103,0.01745134,0,1
-0.07235353,0.19095993,-0.014479266,0,1
-0.018663444,-0.11597348,-0.1561881,0,1
0.06618997,-0.44150162,-0.2266451,0,1
-0.08937819,-0.28882504,-0.14663385,0,1
-0.21476245,0.18207073,-0.047115024,0,1
-0.13360953,0.33983707,0.007528713,0,1
0.06439498,0.19023037,0.07170278,0,1
0.110976785,0.17815685,0.04624982,0,1
0.09615756,-0.3233776,-0.1990469,0,1
0.052353892,-0.5901308,-0.20314887,0,1
-0.10508837,-0.3911543,-0.011592888,0,1
-0.061061576,-0.24822712,0.043141752,0,1
-0.023203418,-0.25828457,0.13858607,0,1
-0.16012116,-0.014462462,0.23352665,0,1
-0.1879174,-0.1355648,0.13875668,0,1
-0.09689771,-0.67362404,-0.1554331,0,1
-0.003803954,-0.12401297,-0.4038114,0,1
-0.031898588,0.19084452,-0.3439405,0,1
-0.2095342,0.5600214,-0.15357883,0,1
-0.2715394,0.6787281,-0.04373276,0,1
0.027782533,0.77519894,0.039478157,0,1
0.37970668,1.2552891,0.19547923,0,1
0.3208694,1.3128357,0.30183348,0,1
-0.293442,1.280138,0.1078715,0,1
-0.2574135,1.0161276,-0.000135138,0,1
-0.27297258,0.9019928,-0.42171597,0,1
-0.33388245,1.8224373,-0.47088635,0,1
0.4135239,0.9181891,0.37818593,0,1
0.539753,0.15464407,0.89441866,0,1
0.100695536,0.4727288,0.9263259,0,1
0.31508622,-0.020726169,0.50112253,0,1
0.5059981,-0.4860811,0.53143615,0,1
0.39653903,-0.5720796,0.9085509,0,1
0.22238022,-0.684988,0.18212049,0,1
0.111120746,-0.60034657,-0.023722831,0,1
-0.21893224,-0.30327415,0.19935429,0,1
-0.41041222,0.2564802,-0.22593243,0,1
-0.42804083,0.692502,0.07259758,0,1
-0.78797877,0.96703243,0.5137645,0,1
-0.9932208,0.8556566,0.67350096,0,1
-1.0458455,1.4520332,2.287222,0,1
-1.1940963,4.7144003,4.6301446,0,1
-2.323712,3.1245987,4.6607647,0,1
-3.2355237,0.25341803,2.3010914,0,1
-2.2661426,1.406023,1.6331118,0,1
-0.904542,2.641949,2.5859296,0,1
-0.2094157,-0.47883505,1.2842687,0,1
0.75289637,-1.1958914,-0.61877626,0,1
1.904925,1.402854,-1.1892775,0,1
1.7142613,2.7480536,-0.8423782,0,1
1.2414076,3.102851,-1.1335778,0,1
0.72157073,3.3689709,-0.72610617,0,1
0.68599313,3.612588,-0.33625948,0,1
0.59248465,3.4014044,-0.3077716,0,1
0.42489052,2.717639,-0.5037492,0,1
-0.2853691,1.5415335,-0.43704864,0,1
-0.7476481,0.73320293,0.16695347,0,1
-0.94982165,0.5108156,0.505411,0,1
-1.1044142,0.14743905,1.187815,0,1
-0.9781591,-0.56872934,1.566561,0,1
-0.9386959,-2.2370453,1.7021996,0,1
-0.3254932,-2.7892365,1.5174485,0,1
-0.009012818,-2.5156674,1.5909808,0,1
-0.001972854,-1.8860224,1.8967407,0,1
0.094447374,-2.4884467,1.7772881,0,1
0.18854447,-3.7241278,0.9858625,0,1
0.93255436,-3.4200888,0.14605784,0,1
1.0801686,-3.3874621,-0.12449577,0,1
0.5797841,-3.6385045,-0.23988457,0,1
0.1565463,-3.7756453,0.042793572,0,1
-0.29043263,-3.8483086,0.19896588,0,1
-0.71853644,-3.2883315,-0.52149445,0,1
-0.71003926,-2.9765115,-1.0287769,0,1
-0.71939206,-2.4440632,-1.4061882,0,1
-0.5610017,-2.1841598,-1.6462791,0,1
-0.6910495,1.1138952,-3.6261816,0,1
0.012365937,5.878899,-4.493015,0,1
1.2283025,5.322032,-3.908557,0,1
2.352771,-0.8399305,-0.13698952,0,1
2.7002177,-2.2957606,0.14215736,0,1
2.7998493,-2.1443262,-1.4287702,0,1
2.705686,-0.49838164,-1.8128166,0,1
2.2486336,-0.25206763,-1.8101289,0,1
0.2496109,-0.010055658,-2.1842296,0,1
-0.31795162,-0.0415336,-2.2159271,0,1
0.074989855,-0.06841956,-1.8790114,0,1
0.5175834,0.050404478,-1.4908861,0,1
0.2462045,0.075482294,-1.4035795,0,1
-0.35476947,0.42100325,-1.2062027,0,1
-0.58499026,0.50411314,-1.1172885,0,1
-0.95401144,0.44615358,-0.81253344,0,1
-1.0663922,-0.06586937,-0.24585617,0,1
-0.8995641,-0.11161901,0.016708665,0,1
-1.40671,0.18150423,0.18345271,0,1
-2.192086,0.19084735,0.09334655,0,1
-3.2780592,0.0820226,0.043985013,0,1
-2.6980474,-0.22058302,0.06981413,0,1
-2.2495196,-0.50889784,0.07941648,0,1
-1.1871272,-0.69389343,0.26757213,0,1
-0.51567686,-0.25381756,0.33085364,0,1
0.5837387,0.5408192,0.37837762,0,1
1.7368319,0.9949799,0.80492264,0,1
2.537863,0.7038604,0.9623981,0,1
3.4946766,-0.5126513,1.2601333,0,1
3.1546044,-0.9915303,1.2358103,0,1
1.3191675,-1.2215518,1.1317492,0,1
-0.6138924,0.53834057,0.34587806,0,1
-1.2329389,1.7722921,0.14795677,0,1
-1.3259947,2.1920023,-0.21769701,0,1
-1.019227,0.97688574,-0.14449137,0,1
-0.89235145,-1.6383886,0.47108826,0,1
-1.0509169,-1.2368555,0.06445067,0,1
-0.99093014,-0.5768004,-0.27697238,0,1
-0.8473097,0.32658762,-0.6289931,0,1
-0.7223275,0.56911176,-0.7010844,0,1
-0.2791635,0.27623555,-0.5054629,0,1
0.024785198,-0.082289696,-0.057766173,0,1
0.083775476,-0.046246525,0.053344984,0,1
0.34260428,0.19223213,-0.016832966,0,1
0.37807325,0.28259373,-0.001326932,0,1
0.20224658,0.10181714,0.11485571,0,1
-0.01996541,-0.0367813,0.21150771,0,1
-0.21045136,-0.039093014,0.1577512,0,1
-0.27864397,0.08933925,-0.027923556,0,1
-0.12103344,0.122480385,-0.022963353,0,1
0.19455858,-0.000632278,0.078306004,0,1
0.18128134,-0.029746052,0.00243449,0,1
0.062085245,-0.011364938,-0.04752196,0,1
-0.15295872,0.013015741,-0.037531845,0,1
-0.20673233,0.04233646,0.022530722,0,1
-0.36633632,0.09334755,0.08266486,0,1
-0.43093827,0.08715343,0.074719615,0,1
-0.41419607,0.08132552,0.077546105,0,1
-0.3426375,0.020182606,0.07959536,0,1
-0.28191188,-0.02182484,0.046710543,0,1
-0.2159564,-0.040010456,0.033474468,0,1
-0.24832737,0.040719982,0.012207556,0,1
-0.3046084,0.04446697,0.018588366,0,1
-0.40668136,0.03707694,-0.01482196,0,1
-0.43288308,0.038531292,-0.040035468,0,1
-0.35241172,0.027047146,-0.07485137,0,1
-0.18786693,0.050094597,-0.056299265,0,1
-0.109084725,0.06994247,-0.043622177,0,1
-0.10804152,0.028326029,-0.042532355,0,1
-0.15373926,0.03449344,-0.048705216,0,1
-0.2097496,0.09764289,-0.07293417,0,1
-0.21612877,0.053553574,-0.04591586,0,1
-0.1733094,0.005049698,-0.06424064,0,1
-0.1428081,0.02160739,-0.09756185,0,1
-0.15627384,0.038407315,-0.11698774,0,1
-0.22723563,0.056968674,-0.15446907,0,1
-0.25354457,0.07493208,-0.18112852,0,1
-0.23557773,0.06544684,-0.15977086,0,1
-0.18071765,0.050257668,-0.17741777,0,1
-0.1515538,0.016781792,-0.19328493,0,1
-0.13477433,0.001392353,-0.14756168,0,1
-0.1939657,0.052200302,-0.1928429,0,1
-0.2089346,0.035118088,-0.18208781,0,1
-0.1702061,0.044177044,-0.14364177,0,1
-0.117512636,0.045332897,-0.14979261,0,1
-0.088571474,-0.005221375,-0.10668457,0,1
-0.14240175,0.029508581,-0.10913393,0,1
-0.1840794,0.022609701,-0.1020246,0,1
-0.21415046,0.03308486,-0.08483178,0,1
-0.21642375,0.025238981,-0.087241225,0,1
-0.18193193,0.026432028,-0.08049421,0,1
-0.15829778,0.031558983,-0.071995266,0,1
-0.14284235,0.037158005,-0.056338172,0,1
-0.1694934,0.018467898,-0.04164943,0,1
-0.20457552,0.02524089,-0.049004212,0,1
-0.24700236,0.036204327,-0.07394388,0,1
-0.219583,0.097708695,-0.10005128,0,1
-0.19650893,0.096133225,-0.10512907,0,1
-0.14636537,0.023830406,-0.060834203,0,1
-0.10333662,0.024822228,-0.09451969,0,1
-0.15460932,0.022698393,-0.11317991,0,1
-0.20895714,0.048760403,-0.10599285,0,1
-0.16765319,0.05374812,-0.11806429,0,1
-0.124393195,-0.000954638,-0.12982088,0,1
-0.12433662,0.00050353,-0.12696159,0,1
-0.16062316,0.028870571,-0.15140925,0,1
-0.19226141,0.02602862,-0.17654869,0,1
-0.18192202,0.024644839,-0.1763791,0,1
-0.18240863,0.003674493,-0.18862492,0,1
-0.18848184,0.022385584,-0.16878453,0,1
-0.15420939,0.08600043,-0.17051664,0,1
-0.11267839,0.004065502,-0.15774308,0,1
-0.08961491,-0.019987117,-0.17353365,0,1
-0.047913164,0.017158497,-0.18336071,0,1
-0.044094324,0.035524357,-0.16159405,0,1
-0.06350616,0.07925891,-0.14204113,0,1
-0.14040217,0.033653248,-0.13555396,0,1
-0.17699893,-0.008078587,-0.15240395,0,1
-0.1996819,0.039846405,-0.19335288,0,1
-0.17902482,0.07369326,-0.17554678,0,1
-0.120379224,0.059292782,-0.14976326,0,1
-0.12077154,0.022768008,-0.19002412,0,1
-0.11674735,0.020211207,-0.19317453,0,1
-0.086822584,0.07159137,-0.15061294,0,1
-0.10822046,0.09515952,-0.12985831,0,1
-0.19778863,0.027492512,-0.12349875,0,1
-0.13919932,0.009711255,-0.13742007,0,1
-0.14817747,0.00401782,-0.12932892,0,1
-0.19893607,0.004968628,-0.19141966,0,1
-0.1705252,0.024642928,-0.22451901,0,1
-0.082249105,0.06396578,-0.23491573,0,1
-0.107308954,0.05305386,0.096154004,0,1
-0.1948998,0.020750998,0.029675515,0,1
-0.096264616,0.5434427,-0.4909587,0,1
0.04796499,0.7524528,-0.6936144,0,1
0.40625906,-0.022533441,-0.5965998,0,1
2.1806886,-1.0378551,0.043105002,0,1
2.7588136,-1.1190938,0.23099822,0,1
-0.27684873,-0.48599243,0.10231934,0,1
-1.8432366,-0.72224617,0.67473406,0,1
-1.4801329,-0.6584414,2.262421,0,1
-0.26735762,2.537115,0.81663173,0,1
-0.019533433,2.5978289,-0.24919377,0,1
0.56751585,1.6519585,-0.10618103,0,1
0.7771854,0.9669524,0.33911687,0,1
0.2139754,-0.4752578,1.2566813,0,1
0.27276656,-1.1734694,1.1441004,0,1
0.43325114,-1.7777079,1.1415021,0,1
0.52911997,-2.2859387,1.3718567,0,1
1.3231688,-2.719194,1.6273012,0,1
2.588201,-3.6962845,1.4482535,0,1
0.3209729,-2.3203773,0.7884404,0,1
-1.145793,-1.4179926,0.57429725,0,1
-1.4660712,1.1333685,0.92058736,0,1
-1.1998401,3.1074095,0.82740444,0,1
0.1556018,4.157583,-2.4612134,0,1
0.6509564,4.92176,-5.1709886,0,1
-0.37620926,4.6761703,-3.984762,0,1
-1.5751708,1.6428078,-2.334372,0,1
-1.9223833,1.6072596,-2.198123,0,1
-1.2057753,2.1565263,-2.0729334,0,1
0.23326004,0.946555,-2.5575266,0,1
0.88014585,-0.21481623,-2.781588,0,1
1.0408292,-1.3046323,-1.9853445,0,1
0.53198916,-1.3857193,-1.2751938,0,1
-0.7804314,-1.8808293,-0.57681644,0,1
-1.382323,-1.4232942,-0.6430791,0,1
-1.709554,-1.0043851,-0.5804873,0,1
-1.634313,-0.7232514,-0.32382736,0,1
-1.2466973,-0.91854006,-0.27488816,0,1
-0.053057592,-1.1390886,-0.2942932,0,1
0.8667127,-0.088749945,-1.4540538,0,1
0.47119606,0.41007605,-1.5504122,0,1
-0.9786559,-0.020853074,-0.1973261,0,1
-1.1619095,-0.6208086,0.48679104,0,1
-0.48522237,-0.52899355,1.0922875,0,1
-0.17827907,0.72797495,1.1727954,0,1
-0.38753036,0.7648936,1.1148616,0,1
0.25378293,0.16595656,0.85193664,0,1
0.7604355,0.20530324,0.5778156,0,1
0.16285542,0.097901374,0.47477964,0,1
-0.21904123,0.14622022,0.30409312,0,1
-0.10381588,0.37156007,-0.34926844,0,1
0.6560086,0.71870416,-1.1815852,0,1
0.52788657,0.2489786,-0.57586104,0,1
-0.85956156,-1.8426856,1.9566623,0,1
-1.3932377,-1.1679791,1.6571428,0,1
-1.1613313,1.1074705,0.48728132,0,1
-0.4100545,2.4533052,-0.2224069,0,1
-0.1517515,0.8149185,-0.119370155,0,1
-0.42455083,-1.0420055,0.31440496,0,1
-0.54818344,-0.035065647,0.29817635,0,1
-0.24523373,0.20315266,-0.000161122,0,1
0.04688772,-0.1290226,0.108070545,0,1
0.10398063,-0.076467484,0.43589994,0,1
0.48673785,0.2648068,0.6858194,0,1
0.3051158,0.2668944,1.109893,0,1
0.2951058,0.2048207,1.3068162,0,1
0.30248708,0.18314941,1.2204907,0,1
0.20175514,0.33131418,1.2676585,0,1
-0.03516674,0.11681281,1.8824248,0,1
-0.42203796,0.20824054,0.7776264,0,1
-0.78046274,0.23279664,-0.22000687,0,1
-1.2945912,-0.027232243,-0.8073063,0,1
-1.6718423,-0.25779825,-0.5935916,0,1
-2.4357357,-0.7789871,-1.8539567,0,1
-2.4798005,-0.153517,-3.1272197,0,1
-1.8947496,0.18173768,-3.2679408,0,1
1.1236827,0.022049822,-1.9255421,0,1
2.0649028,0.27614975,-0.82484645,0,1
0.8760333,1.5791368,-0.28423074,0,1
0.71633846,0.98373896,1.16447,0,1
1.364546,0.26069367,1.4166195,0,1
2.432474,-1.250264,0.26139787,0,1
2.0840824,-1.6827496,0.29637888,0,1
0.19936591,-1.704934,2.3517191,0,1
-0.60754335,-0.8883094,1.7965919,0,1
-0.40817526,-0.43955892,1.0147754,0,1
-0.53496754,1.0927505,0.46653736,0,1
-0.28988898,2.038538,-0.44474375,0,1
0.98508567,2.2678738,-1.3367774,0,1
0.51774234,-0.48582554,-0.13500597,0,1
0.15730888,-1.1437626,-0.10098465,0,1
-0.18151623,-0.28350547,-0.52232224,0,1
-0.23958291,0.19206521,-0.46679038,0,1
-0.24863935,0.23308371,-0.19450663,0,1
-0.124895446,0.10903643,-0.19239819,0,1
-0.10634139,0.15080069,-0.17492013,0,1
0.004905552,-0.085926056,-0.051654603,0,1
0.10490742,-0.141325,0.018624479,0,1
-0.006475173,0.08734133,0.36389622,0,1
0.042410545,0.15987018,0.42931497,0,1
0.25836402,0.08187201,0.23667395,0,1
0.28000653,0.009284022,-0.05044516,0,1
0.20257497,0.019663814,-0.022751534,0,1
0.16606468,-0.049676895,-0.032995712,0,1
0.29996723,-0.07704641,-0.342715,0,1
0.30538875,-0.09624388,-0.5190729,0,1
0.08493595,-0.08990958,-0.5387868,0,1
-0.002038419,-0.06596759,-0.5332286,0,1
0.02682279,0.02396867,-0.4735463,0,1
-0.003661789,-0.000858326,-0.33624524,0,1
-0.027833238,-0.06901838,-0.294372,0,1
0.11170619,-0.19248106,-0.35780188,0,1
0.27567384,-0.15015604,-0.42767638,0,1
0.48449627,0.04757879,-0.5688657,0,1
0.26440197,0.20377728,-0.72603226,0,1
0.17173539,0.15472409,-0.6629894,0,1
-0.04029061,-0.029134778,-0.47442776,0,1
-0.17633986,-0.023386983,-0.43388122,0,1
-0.3576545,0.10267541,-0.45942777,0,1
-0.08904423,-0.01551822,-0.53032655,0,1
-0.10097751,-0.031202348,-0.5416562,0,1
-0.26971957,0.03468606,-0.4344633,0,1
-0.19569719,0.05873868,-0.470886,0,1
0.018954784,0.11493297,-0.79742086,0,1
0.004922956,0.20356555,-0.91775584,0,1
-0.002374977,0.26390833,-0.9577824,0,1
0.11905378,0.14008994,-0.91099346,0,1
0.12728013,0.007614098,-0.72206473,0,1
-0.3027663,-0.16611576,0.2172706,0,1
-1.036146,-0.18608947,1.1097587,0,1
-1.1901603,-0.08223817,1.0118783,0,1
-0.8704507,0.11645222,0.35941803,0,1
-0.5313943,0.109044075,0.19888026,0,1
0.1925816,-0.004050239,0.22062457,0,1
0.5024933,0.06521131,0.13946915,0,1
0.48496437,0.11484815,0.074823566,0,1
0.3246819,-0.013942709,0.037498087,0,1
0.32081464,-0.10023116,0.07142097,0,1
0.20009026,-0.012025815,0.24167407,0,1
0.016587175,0.07999041,0.3424225,0,1
-0.01175008,0.04835512,0.32668152,0,1
-0.14399855,0.026124964,0.2347965,0,1
-0.20780611,0.06729031,0.19992487,0,1
-0.18058741,0.060164455,0.15753104,0,1
-0.2247501,0.046708114,0.21491593,0,1
-0.27407897,0.0703106,0.1935676,0,1
-0.23706578,0.10932828,0.16645432,0,1
-0.1537058,0.1219616,0.13317552,0,1
0.038648855,0.0751505,0.08963141,0,1
0.22952329,0.044217117,0.06006107,0,1
0.23489648,0.0612402,-0.03549305,0,1
0.16327657,0.032155033,-0.13087964,0,1
0.16515093,-0.019336704,-0.1307566,0,1
0.17919047,-0.054144867,-0.18467283,0,1
0.2031146,0.007950772,-0.2776468,0,1
0.22143832,0.030800808,-0.29285052,0,1
0.259063,-0.006479275,-0.31857243,0,1
0.31426245,-0.019801153,-0.35167393,0,1
0.28088057,0.054215416,-0.36810276,0,1
0.13682094,0.06012153,-0.21877813,0,1
0.11033207,0.04567241,-0.16719538,0,1
-0.001456503,0.055836674,-0.08946057,0,1
-0.05450353,0.054107662,-0.04912708,0,1
-0.09558038,0.031144138,-0.043258324,0,1
-0.13860759,0.043889992,-0.08721678,0,1
-0.16841584,0.045722,-0.080685735,0,1
-0.14894867,0.012013431,-0.026408143,0,1
-0.09694403,0.004084583,-0.039279327,0,1
-0.07001753,-0.003757484,-0.095640995,0,1
-0.26493406,0.058100697,0.029923718,0,1
-0.3615723,0.11524105,0.1411781,0,1
-0.30215538,0.112512596,0.1875675,0,1
-0.19957739,0.05709744,0.16145915,0,1
-0.15142325,-0.005262372,0.109242335,0,1
-0.24293154,0.05851746,0.14689328,0,1
-0.26869267,0.08380699,0.16431282,0,1
-0.2722242,0.025814058,0.1266553,0,1
-0.24872766,0.01178646,0.07785032,0,1
-0.23288426,0.068371765,-0.005881231,0,1
-0.13722125,0.054924004,-0.082134575,0,1
-0.109790385,0.04799556,-0.11807977,0,1
-0.1056527,0.03852557,-0.14964263,0,1
-0.08705754,0.048727978,-0.13577983,0,1
-0.15290245,0.089154236,-0.11877368,0,1
-0.1417616,0.046332352,-0.08824742,0,1
-0.09434129,0.026840203,-0.111663096,0,1
0.003243193,0.027464855,-0.19708471,0,1
0.014078379,0.046812046,-0.19524871,0,1
0.010089181,0.08902644,-0.14569381,0,1
0.08576043,0.04270458,-0.09870081,0,1
0.15643913,0.013338085,-0.12785637,0,1
0.3136984,-0.044504173,-0.22640371,0,1
0.27080038,-0.051127445,-0.27951413,0,1
0.10699723,0.040249817,-0.19510007,0,1
-0.024499474,0.06489944,-0.06519839,0,1
-0.06155874,0.07998562,-0.03557879,0,1
-0.101985745,0.14529896,0.14265743,0,1
-0.08797941,0.15806581,0.22477722,0,1
0.094377235,0.1771784,0.12907419,0,1
0.18678412,0.7245798,0.38575035,0,1
-0.020158082,1.0145149,1.073844,0,1
-0.8225052,0.10768897,1.5211809,0,1
-0.17461494,0.015277922,1.1372793,0,1
-0.77219975,0.26979834,1.3599101,0,1
-3.605133,0.14444067,1.6474016,0,1
-4.35815,0.17427918,1.1534598,0,1
-4.079628,-0.27981585,-1.459206,0,1
-3.5085769,-0.32133794,-2.8320441,0,1
-3.766728,-0.57725936,-4.4290357,0,1
-3.1001787,-0.77147907,-6.2273455,0,1
-1.7854121,-0.8382258,-6.9679956,0,1
0.7815614,-1.0904688,-7.0607533,0,1
1.4114397,-1.222112,-6.445389,0,1
2.3325524,-1.5347226,-5.0469775,0,1
3.254521,-1.4459382,-3.9107494,0,1
3.1320317,-1.7249147,-3.4155374,0,1
3.0500314,-1.9361492,-2.3003983,0,1
3.5241675,-1.5627174,-1.735445,0,1
4.1263013,-0.9137096,-0.99241406,0,1
3.798924,-2.4620738,-0.7041343,0,1
2.9715905,-3.6533976,-0.78666896,0,1
0.83180386,-4.9759755,-2.2712376,0,1
0.35875547,-4.944689,-2.6653128,0,1
0.21462248,-2.3470922,0.13318361,0,1
-0.15079641,-0.49250686,2.262638,0,1
0.09110749,-1.1322421,2.0509412,1,0
-0.5640236,-2.933344,1.7118204,1,0
-0.8760303,-3.3498483,1.6635189,1,0
-0.25181302,-3.197987,0.43988293,1,0
0.5275592,-2.6598797,-0.043313663,1,0
0.15711913,-2.5074167,1.292085,1,0
-0.5133251,-3.4567668,2.454439,1,0
-0.4761852,-4.6277595,2.0690067,1,0
-1.1142151,-3.7033129,2.270515,1,0
-1.3500036,0.43749624,1.480419,1,0
-2.0576236,1.4377604,1.211774,1,0
-2.5292714,4.295539,1.9232092,1,0
-2.2704647,9.070239,3.086187,1,0
-2.966844,25.132683,4.4895587,1,0
2.1128178,28.715591,-0.9361518,1,0
3.5569086,21.677319,-1.6486642,1,0
2.6202152,8.420966,-1.3018638,1,0
1.4834092,4.6528378,-1.1846409,1,0
-1.2678444,-2.1464055,2.6752946,1,0
-1.4130945,-7.3671117,3.1264524,1,0
-0.6413181,-9.305403,2.1571083,1,0
-0.2635669,-10.930933,2.3513575,1,0
-0.77631366,-10.857772,2.44624,1,0
-0.7944378,-10.489829,0.32685217,1,0
-0.62868655,-11.4607315,0.09015551,1,0
-0.4380784,-11.746353,0.67113924,1,0
-0.5381748,-9.85671,1.7321252,1,0
-1.3329499,-7.1247935,2.8330333,1,0
-1.2295548,3.7008698,3.0888083,1,0
0.29926604,17.88882,1.5400367,1,0
0.019340277,21.36562,2.753084,1,0
-0.492931,19.098385,4.480103,1,0
-0.795174,14.207318,3.5264027,1,0
-1.5419378,1.5128412,0.946167,1,0
-0.07290537,-7.904222,0.008508243,1,0
0.86839634,-9.36896,-0.033739828,1,0
1.4901077,-9.308487,-0.5641011,1,0
1.3016443,-9.469984,-0.843422,1,0
0.91899574,-9.316055,-1.3343558,1,0
0.7308335,-4.480312,-2.116532,1,0
0.49285907,-0.96508133,-2.0414338,1,0
0.272682,6.713622,-1.6939869,1,0
0.4084882,10.182742,-1.6922194,1,0
0.42792836,11.561809,-0.99567676,1,0
0.63683134,6.375699,-0.6739343,1,0
0.76291895,2.4278955,-0.29259834,1,0
0.9728929,-3.4819307,0.17600018,1,0
0.90933645,-4.9211802,-0.0191822,1,0
0.142196,-6.770059,-0.14698425,1,0
-0.8634589,-6.5112705,0.2529363,1,0
-1.1392266,-5.125493,0.23827974,1,0
-1.2167541,-0.77186584,-0.04627104,1,0
-1.2558832,1.4752941,-0.24093053,0,1
-1.3922551,4.7488537,-0.30943018,0,1
-1.0335916,5.215584,0.101215616,0,1
-0.7548656,4.262706,0.23484442,0,1
-0.2637557,0.9802084,0.19083631,0,1
-0.10721118,-0.76422596,0.06241754,0,1
0.07773312,-3.3332973,-0.3014348,0,1
0.14650719,-3.7856455,-0.42860952,0,1
0.20033044,-3.3721313,-0.29429838,0,1
0.31126207,-1.5558825,-0.26111504,0,1
0.33546412,-0.28335285,-0.3116438,0,1
0.2899615,2.0557413,-0.19417371,0,1
0.35837102,3.01468,0.10908336,0,1
0.4133671,2.9063768,0.16345838,0,1
0.47787738,1.6205254,0.14947806,0,1
0.4423867,0.67931366,0.17588201,0,1
0.30004007,-0.9362507,0.15444186,0,1
0.101633854,-1.6981649,0.075722896,0,1
-0.029379746,-1.7284517,-0.015285599,0,1
-0.2833547,-1.0434837,-0.2249887,0,1
-0.350456,-0.4683762,-0.269648,0,1
-0.4094506,0.65629673,-0.24007149,0,1
-0.3429361,1.2429667,-0.14718881,0,1
-0.26255357,1.1515331,-0.12090781,0,1
-0.10794337,0.44859123,-0.06955282,0,1
-0.027738674,0.005709643,-0.0861156,0,1
0.016745858,-0.7533922,-0.19223294,0,1
-0.025917357,-1.0271978,-0.09347817,0,1
-0.010896308,-0.904335,-0.048806194,0,1
0.062049095,-0.23959255,-0.0364924,0,1
0.09780696,0.15322304,-0.039047513,0,1
0.12708704,0.8354683,-0.075557865,0,1
0.14664987,0.9239397,-0.12170758,0,1
0.16696088,0.6416769,-0.018406825,0,1
0.05073744,-0.09970283,0.122794695,0,1
0.003018204,-0.33197308,0.09284219,0,1
-0.07359516,-0.47443962,0.020808699,0,1
-0.13487831,-0.35852146,-0.18633421,0,1
-0.15251887,-0.23081972,-0.2698264,0,1
-0.17252952,0.06245707,-0.1993324,0,1
-0.1379426,0.18348692,-0.16207364,0,1
-0.038844217,0.3320303,-0.16092554,0,1
0.053591345,0.16662215,-0.17714514,0,1
0.07807459,-0.008154874,-0.117410526,0,1
0.024712658,-0.22641659,-0.021141434,0,1
-0.000264524,-0.25201988,-0.007363271,0,1
-0.001367766,-0.11482048,0.003515428,0,1
0.010859195,0.10887051,0.010093616,0,1
0.020113412,0.19258595,0.010162422,0,1
0.051597558,0.29786587,-0.08819869,0,1
0.024241034,0.26633263,-0.11704794,0,1
-0.06355591,0.011793133,-0.04766081,0,1
-0.11276072,-0.17965221,-0.06623918,0,1
-0.13407284,-0.19847585,-0.09028494,0,1
-0.08500882,-0.13656141,-0.13567175,0,1
-0.05158397,-0.09473421,-0.19909501,0,1
0.019710474,-0.11227036,-0.14997953,0,1
-0.065293916,-0.119038574,0.11551265,0,1
-0.09190262,0.07328511,0.10912741,0,1
0.014067501,0.42381954,-0.10828574,0,1
0.06508918,0.39218426,-0.18460508,0,1
-0.08523017,-0.36512092,-0.38843822,0,1
-0.15981002,-1.3904209,-0.8136243,0,1
0.071894854,-1.4462214,-0.8887158,0,1
0.36061656,-0.85821253,-0.68741024,0,1
0.18186341,-0.662468,-0.6667724,0,1
0.05385457,-0.48512557,-0.5833917,0,1
0.46387783,0.05099774,-0.019603532,0,1
0.6346258,0.36389735,0.38107732,0,1
0.39006242,-0.50776,1.1182792,0,1
0.029847383,-1.1547354,1.407846,0,1
-0.57426596,-0.48023218,1.0537249,0,1
-0.58501285,1.156249,0.3923999,0,1
-0.620173,1.6565208,0.20779063,0,1
-0.6835538,2.26608,0.592357,0,1
-0.6516117,2.416254,0.85476965,0,1
-0.5738895,1.8551474,0.2862969,0,1
-0.4050184,1.442893,-0.010225046,0,1
-0.19190545,1.2197809,0.13290317,0,1
0.30148843,0.7393379,0.12211626,0,1
0.38684464,0.4216347,0.24578792,0,1
0.39011878,-0.20930383,0.39102185,0,1
0.67343086,-0.4757795,0.06236346,0,1
0.799338,-0.56781864,0.022406992,0,1
1.0834414,-0.57513523,0.05704966,0,1
1.1232566,-0.48952097,0.5192287,0,1
0.70858306,-0.000349912,1.2767837,0,1
0.058246538,1.4144468,0.71340495,0,1
-0.44727883,1.9374561,0.77476275,0,1
-1.1079662,2.4205217,2.3306544,0,1
-1.0566437,3.0353549,3.4695542,0,1
-0.8969555,3.0941937,3.6277556,0,1
-1.0487435,1.7519075,3.1068296,0,1
-1.2113242,1.0314742,2.9169784,0,1
-0.47433332,-0.40500733,0.8803005,0,1
-0.012286041,-0.9188547,0.1721614,0,1
0.2696288,-1.921072,-0.1710135,0,1
0.6696074,-0.23240474,-0.8698215,0,1
0.81341505,1.031764,-1.1410898,0,1
0.48297983,2.6430273,-1.8650615,0,1
0.25663882,3.484719,-2.3064,0,1
0.3922649,5.856311,-1.8463473,0,1
0.2656736,5.2059326,-1.1814798,0,1
-0.14323005,3.7493858,-1.3145205,0,1
-0.45056537,1.7483711,-0.68494135,0,1
-0.3584466,1.451869,-0.15704581,0,1
-0.22835696,0.6426649,0.26193744,0,1
-0.22462016,-0.10269354,0.3898477,0,1
-0.14143628,-0.3015432,0.6303277,0,1
0.010087103,-0.87178224,1.1123087,0,1
0.12797707,-1.2023505,1.1652459,0,1
0.5101315,-1.4444951,0.9963121,0,1
0.19712627,-2.76973,0.57452315,0,1
0.02302485,-3.5259318,0.18176244,0,1
0.46444264,-3.6604347,-0.3651703,0,1
0.61247414,-3.910088,-0.12113239,0,1
0.16005254,-4.7356906,0.3670124,0,1
-0.28163892,-4.3680453,1.242184,0,1
-0.42060503,-4.2906847,1.4192224,0,1
-0.46195477,-3.9462738,-0.3467198,0,1
-0.41857514,-3.5218077,-1.5230435,0,1
-0.6613447,-2.2900422,-2.7306926,0,1
0.09715873,-0.39901653,-2.504026,0,1
0.37839466,0.77786726,-1.7152921,0,1
0.4575725,1.5703306,-0.4233496,0,1
0.24497268,0.85975266,-0.1371301,0,1
-0.16004847,-0.42779642,-1.0825197,0,1
0.20404261,-0.3199416,-1.9143447,0,1
0.13223386,-0.09122952,-1.5914086,0,1
-0.2564558,0.3692388,-0.7123787,0,1
-0.3706952,0.39261243,-0.3289628,0,1
-0.5832561,-0.12708186,0.39690536,0,1
-0.12715204,-0.17286679,0.56899303,0,1
0.13289033,-0.07358453,0.47994038,0,1
0.5391193,-0.14579582,-0.08996758,0,1
0.6765147,0.032029133,-0.57267094,0,1
0.7744155,0.54564375,-1.5252528,0,1
0.65091276,0.6212749,-1.0966313,0,1
0.48580632,0.6338854,-0.47760418,0,1
-0.21666388,0.099619895,0.5749431,0,1
-0.39104193,-0.28709218,0.82834625,0,1
0.1757273,-0.2572326,0.7827683,0,1
0.43700445,0.18589307,-0.006747413,0,1
0.18789701,0.11976335,-0.4916008,0,1
-0.18423283,-0.10726647,-0.696439,0,1
-0.12977642,-0.08732893,-0.32824954,0,1
-0.032234654,0.040294684,0.68505204,0,1
-0.13190946,-0.027142473,0.99532485,0,1
-0.21832964,-0.065554574,0.861639,0,1
-0.20006463,0.04971983,0.39611894,0,1
-0.19679724,0.08820915,0.12344567,0,1
-0.27613723,0.007880195,-0.18327487,0,1
-0.23025301,0.006071083,-0.04248324,0,1
-0.18687588,0.038211823,0.07676976,0,1
-0.1039655,0.09900475,0.18059036,0,1
-0.11268141,0.058662422,0.17789218,0,1
-0.15486684,-0.022391314,0.16621959,0,1
-0.1710473,0.033406258,0.055067644,0,1
-0.16539301,0.059885975,-0.016540792,0,1
-0.15991005,0.06309699,-0.047351595,0,1
-0.16042794,0.034546845,-0.051244367,0,1
-0.13743888,0.015488619,-0.045394838,0,1
-0.09543645,0.033553123,0.014351834,0,1
-0.09590127,0.013603214,0.11182824,0,1
-0.13015299,0.020521183,0.38211858,0,1
-0.13780162,0.04234221,0.47963643,0,1
-0.07987806,0.055954,0.4506694,0,1
-0.08055037,0.060271278,0.32995272,0,1
-0.078964606,0.0480528,0.24544083,0,1
-0.057860512,0.011724476,0.08273385,0,1
-0.044119406,0.022642137,0.04807274,0,1
-0.011941917,0.083722115,0.057491254,0,1
-0.004269611,0.066913605,0.063546695,0,1
-0.008856745,0.046918873,0.059505146,0,1
-0.023811448,0.051524166,0.04956921,0,1
-0.05233639,0.055134773,0.04600295,0,1
-0.10455772,0.0175972,0.06515561,0,1
-0.12083885,0.005464558,0.12470174,0,1
-0.114805594,0.022952085,0.1371167,0,1
-0.086479455,0.048796657,0.11038022,0,1
-0.0906712,0.0570097,0.10757038,0,1
-0.09219846,0.04796124,0.08245197,0,1
-0.094432525,-0.011704444,0.055422872,0,1
-0.07995738,-0.029084206,0.03456826,0,1
-0.087656915,0.042371746,-0.012514475,0,1
-0.09864518,0.09401416,-0.048586823,0,1
-0.09431245,0.078071594,0.048735064,0,1
-0.09733054,0.048544895,0.24558425,0,1
-0.1030308,0.002486241,0.25568855,0,1
-0.078564055,-0.004450785,0.27648196,0,1
-0.06480896,0.011743556,0.20884398,0,1
-0.052317485,0.023701666,-0.000878217,0,1
-0.042824104,0.02993011,-0.070226684,0,1
-0.06866179,0.026268,-0.058291953,0,1
-0.093136325,-0.012486462,-0.030319504,0,1
-0.07070926,-0.005317689,0.021382168,0,1
-0.05162184,0.02552605,0.09872977,0,1
-0.048412733,0.048628803,-0.050331067,0,1
-0.03139343,0.07159709,-0.13419065,0,1
-0.066502854,0.044574734,-0.014262117,0,1
-0.07647438,0.027203564,0.085101485,0,1
-0.06988998,0.043101314,0.08160056,0,1
-0.07497889,0.08237076,0.038931828,0,1
-0.08812336,0.051018715,0.014641036,0,1
-0.08337782,0.036505695,-0.06235381,0,1
-0.040118244,0.048726078,-0.05793876,0,1
-0.035648324,0.07343197,-0.014588649,0,1
-0.18092394,0.08777237,0.011927957,0,1
-0.25285512,0.101298325,-0.079902366,0,1
-0.28080577,0.09545992,-0.19777158,0,1
-0.22597352,0.06499862,-0.095069595,0,1
-0.034811206,-0.03127478,0.30207306,0,1
0.23319937,-0.12918276,0.9960247,0,1
0.44143066,-0.07376377,1.1922684,0,1
0.9499798,0.09445389,1.1238679,0,1
0.9985652,0.05561359,0.87660676,0,1
0.7349017,-0.2107477,0.027223574,0,1
1.0740429,-0.02852344,-0.31483263,0,1
1.1987567,0.19977668,-0.000739712,0,1
0.9569547,0.15176778,0.38599706,0,1
0.70867604,0.04596141,0.28082627,0,1
0.23983628,0.043690696,0.18365443,0,1
-0.22247085,-0.12795164,-0.15176731,0,1
-0.29633045,-0.17026332,-0.5111744,0,1
-0.33468053,0.73917,-0.82440454,0,1
-0.54591167,1.191246,-0.6409864,0,1
-0.8602238,1.1522875,-0.690544,0,1
-1.1563678,-0.26155573,-0.5176362,0,1
-1.185493,-0.93122387,-0.066194735,0,1
-0.81299317,-0.6652279,0.42180005,0,1
-0.67134386,0.043346412,0.38481572,0,1
-0.32328787,0.7699337,0.42747188,0,1
0.158443,0.049953505,0.7468255,0,1
0.061740175,-0.01597018,0.8775233,0,1
-0.5370556,-0.04652783,0.79674065,0,1
-0.66946316,-0.3219938,0.58236814,0,1
-0.56464905,-0.6175193,0.7595257,0,1
0.5175288,-0.99092954,1.0104235,0,1
0.8093393,-1.1646212,1.029889,0,1
-0.56841916,0.25779146,-0.7052327,0,1
-1.3830266,1.7384747,-2.2342155,0,1
-0.61311394,1.3105448,-2.1253366,0,1
1.0355393,-1.199892,0.047719765,0,1
1.1512835,-0.9764824,-0.508563,0,1
0.5121097,0.12699309,-1.8920717,0,1
0.39213067,0.28734007,-1.7954202,0,1
1.0974617,0.1498241,-1.3135628,0,1
1.5919064,0.16872309,-0.7566293,0,1
1.3101484,0.05416963,-0.95605755,0,1
0.5237261,-0.24349219,-1.366898,0,1
0.46258205,-0.28406817,-1.3488163,0,1
0.7755158,-0.116229124,-1.5222967,0,1
0.53886133,0.09486189,-1.9184914,0,1
0.42457014,0.14316835,-1.9706793,0,1
0.39797354,-0.037907712,-2.152426,0,1
0.124958456,-0.16038908,-2.5267088,0,1
-0.85233736,0.016546043,-3.3946695,0,1
-2.7890325,-0.636101,-2.8754146,0,1
-3.807113,-1.2161142,-1.2756902,0,1
-1.330477,-2.5798357,3.073943,0,1
1.2852345,-1.9302056,3.032544,0,1
2.443681,2.3005505,-2.087694,0,1
1.070366,0.5873574,-2.3159323,0,1
1.0457419,-0.9547501,-1.9923679,0,1
0.5676949,-3.4093835,-2.671695,0,1
-0.26149097,-3.8492384,-1.9419129,0,1
-1.5792999,-3.5223198,0.93558806,0,1
-2.0398877,-0.90289485,3.0322068,0,1
-2.003832,0.2605554,2.983076,0,1
-1.6291876,-0.29014486,1.4426122,1,0
-1.3044989,-0.22403523,0.9294613,1,0
-0.00150957,-0.08622073,0.2681081,1,0
0.513376,-0.76231,0.23294114,1,0
0.29431072,-0.94884676,0.79215634,1,0
0.0911303,-0.17543788,0.6439453,1,0
0.22272576,-0.026523584,0.023712268,1,0
0.6245046,-0.6360712,-0.26910168,1,0
0.6386929,0.5844183,-0.14542004,1,0
0.7405297,1.0062103,-0.24915145,1,0
0.10919395,1.3563976,-0.68886214,1,0
-0.76432174,1.8711146,-1.2638655,1,0
-0.8925659,0.86610985,-0.1335202,1,0
-0.31538537,0.8173247,1.2120454,1,0
-0.7501595,1.4475746,0.6741637,1,0
-1.9641054,2.618558,-0.839056,1,0
-2.1364946,2.2469978,-0.9551626,1,0
-1.7880971,1.5894183,-1.092428,1,0
-2.3684406,0.83925027,-4.8443894,1,0
-2.201753,-1.0530323,-6.2212057,1,0
-0.9377899,-5.841169,-6.7081738,1,0
-0.038695097,-8.620621,-5.928427,1,0
1.2598662,-13.117264,-2.4476135,1,0
-0.04988125,-14.278278,1.0281173,1,0
-0.9199572,-12.649121,3.0948288,1,0
-1.2429979,-6.707936,6.129549,1,0
0.58037245,-2.309827,4.620422,1,0
1.9148114,5.316388,3.3299754,1,0
3.55803,18.745476,9.112172,1,0
6.446719,27.607075,10.114782,1,0
1.6084017,30.991253,7.560035,1,0
-1.1324046,22.66399,4.0749254,1,0
-3.615739,8.531842,-0.86829823,1,0
-5.5032983,-2.3971226,-0.7585918,1,0
-4.586543,-6.486227,1.808357,1,0
-2.4809704,-14.589892,5.70807,1,0
-2.1443787,-15.014246,5.385707,1,0
-1.0154644,-10.817432,0.38724545,1,0
-0.22476041,-7.619601,-1.782459,1,0
-0.046228528,-6.295583,-1.3124287,1,0
1.0104007,-3.258401,-0.061275408,1,0
1.1319193,0.30960658,0.12733574,1,0
1.1357089,8.528888,-0.3546037,1,0
2.2165444,10.556382,-0.3843829,1,0
1.7309998,10.932176,-0.5631527,1,0
0.5671964,7.6322165,-0.23169136,1,0
0.36312497,3.6458483,0.5201018,1,0
0.087415874,-3.8670077,0.8397492,1,0
-0.33789703,-8.276574,-0.09604575,1,0
-0.3626241,-8.7531185,-0.29640055,1,0
-0.297871,-6.684866,-0.2817581,1,0
-0.16539347,-5.096101,-0.27436537,1,0
-0.05136997,-1.4495153,0.13669936,1,0
-0.1705525,3.1018295,0.6600593,1,0
-0.13640976,5.062458,0.71992075,1,0
0.13054365,7.1721735,0.6919758,1,0
0.18682265,7.0761194,0.6618774,1,0
-0.17198692,4.110111,0.66389054,1,0
-0.33992422,-0.6244898,0.18171398,1,0
-0.26972312,-2.6225276,-0.09235501,1,0
-0.027332742,-4.745982,-0.21343969,1,0
0.11928362,-4.8857174,-0.18180507,1,0
0.35312486,-3.8560877,-0.28747272,1,0
0.50640535,-1.2806988,-0.26751453,1,0
0.5539322,0.33768368,-0.25266975,1,0
0.42178386,2.7660112,-0.15685686,1,0
0.30796775,3.2780008,-0.07656373,0,1
-0.08116554,2.832775,-0.08815616,0,1
-0.30285197,1.3687449,-0.051544294,0,1
-0.34619442,0.4406128,-0.00520413,0,1
-0.28769532,-1.4495068,-0.16740477,0,1
-0.19813426,-2.1230354,-0.27211452,0,1
-0.14978021,-2.291709,-0.19064134,0,1
-0.08167063,-1.2011938,-0.09606442,0,1
0.007380266,-0.44786072,-0.09558706,0,1
0.24798423,1.055541,-0.059818223,0,1
0.35432702,1.7731237,0.02630146,0,1
0.2739921,2.0577288,-0.119449265,0,1
0.120642364,1.1067324,-0.16889563,0,1
0.104192436,0.36782074,-0.23749353,0,1
0.07232319,-0.9602604,-0.39847893,0,1
0.031295642,-1.3740988,-0.40779713,0,1
0.001927555,-1.7207851,-0.3829374,0,1
-0.03420157,-1.0464001,-0.3370109,0,1
-0.08999053,-0.40236858,-0.27360386,0,1
-0.07846917,0.82320213,-0.13437869,0,1
-0.07802574,1.1904831,-0.0989902,0,1
-0.115146086,1.3115549,-0.14946397,0,1
-0.11820042,0.7928467,-0.15160146,0,1
-0.09893788,0.3483858,-0.16248582,0,1
-0.1035126,-0.47654632,-0.2672181,0,1
-0.068564266,-0.7728691,-0.30279094,0,1
0.02174858,-0.9108515,-0.28300285,0,1
0.0316651,-0.4700928,-0.29192725,0,1
-0.002890706,-0.13710691,-0.3084752,0,1
-0.029950827,0.42462727,-0.3290736,0,1
-0.020294912,0.5686588,-0.2950162,0,1
-0.067241736,0.5924988,-0.21310803,0,1
-0.14142492,0.2523718,-0.17275701,0,1
-0.14517738,-0.001242651,-0.17587684,0,1
-0.15705949,-0.4182415,-0.2019825,0,1
-0.13436757,-0.53062725,-0.1930473,0,1
-0.058415845,-0.40193462,-0.20191254,0,1
-0.030754104,-0.034899727,-0.24693471,0,1
-0.016379252,0.12442301,-0.24606544,0,1
-0.019271694,0.35916233,-0.2471855,0,1
-0.010417812,0.38227937,-0.27791134,0,1
-0.026740909,0.1451206,-0.3159549,0,1
-0.062349916,-0.18764307,-0.26510796,0,1
-0.06440963,-0.26312447,-0.24062958,0,1
-0.050512154,-0.3055849,-0.1793069,0,1
-0.079654366,-0.26310062,-0.16260874,0,1
-0.14116159,-0.19011118,-0.19184192,0,1
-0.06922393,-0.021165865,-0.2631759,0,1
-0.057362974,0.1040449,-0.30303133,0,1
-0.07460995,-0.20197584,-0.32459828,0,1
-0.1925104,-0.19001392,-0.38133776,0,1
-0.06617043,0.012057278,-0.44363138,0,1
-0.23821855,0.4333696,-0.25380525,0,1
-0.3030306,0.3645353,-0.35221618,0,1
0.16140911,0.30356598,-0.27571368,0,1
0.48112,0.39560604,0.012999051,0,1
0.74721456,1.2919931,0.7449867,0,1
0.47743046,1.8241816,0.84841216,0,1
-0.011985496,2.0289803,0.68912065,0,1
-0.49027142,2.100791,0.3338387,0,1
-0.43508992,2.6891022,0.19219759,0,1
-1.4074867,2.5762978,0.6661628,0,1
-1.8605801,0.54689217,0.87431556,0,1
-0.9889866,1.0965729,1.1156064,0,1
1.1392304,3.0061743,1.7528622,0,1
1.2927523,2.5834115,1.9156679,0,1
0.37214434,2.5153904,1.7927806,0,1
-0.29288593,2.685542,1.0385984,0,1
-0.24306262,1.5307512,0.9650482,0,1
-0.39338002,-0.7588348,0.85446125,0,1
-0.25759068,-1.6179018,0.36208805,0,1
0.8591732,-2.563233,-0.62427175,0,1
0.7604107,-2.8483696,-0.72969073,0,1
0.66921306,-3.0199814,-1.0917945,0,1
0.7984121,-2.9836917,-1.330939,0,1
0.94048965,-2.7249355,-0.6317455,0,1
0.9030814,-2.1043763,0.75281894,0,1
0.85772455,-1.5936164,1.0536762,0,1
1.1297939,-0.75301635,1.3730522,0,1
1.2937621,1.5307419,2.977353,0,1
1.1668656,1.7094862,2.8455307,0,1
0.29814923,0.5655215,4.119888,0,1
-0.6791712,-0.41833666,4.0286274,0,1
-1.4528124,-1.5335149,3.675449,0,1
-0.8022728,-5.7649884,1.0239515,0,1
0.005676337,-6.2724266,-0.27824077,0,1
-1.3739506,-3.989851,-1.4940645,0,1
-1.3519202,-4.5313497,-3.4060378,0,1
-1.2275667,-3.6932805,-4.6065445,0,1
-1.6127362,-0.2998221,-3.6171532,0,1
-1.2337596,0.24077588,-2.696905,0,1
-0.23727655,1.0329205,-5.3032584,0,1
-0.4194963,2.9300103,-7.3194814,0,1
-0.4963597,4.6227546,-6.957688,0,1
-0.20618147,8.619889,-3.3813927,0,1
0.03753653,9.218503,-0.8973059,0,1
0.08511549,8.944982,1.7902203,0,1
-0.191993,5.6623735,1.9124829,0,1
-0.19577038,4.0523643,1.5302663,0,1
-0.044559903,2.0558853,0.16916497,0,1
0.25505075,1.2042341,-0.26460418,0,1
0.80335045,0.76414686,0.24539824,0,1
0.90193874,0.11370664,0.6120569,0,1
0.5512948,-0.35860342,0.598624,0,1
-0.4811437,-0.1231509,-1.201173,0,1
-0.34523445,-0.5850488,-2.0544605,0,1
-0.06764543,-2.8513434,-2.125348,0,1
0.00018844,-3.5222821,-1.4143358,0,1
0.08177745,-2.7961698,-1.1529022,0,1
0.19558811,-3.5675945,-1.7506231,0,1
0.25770885,-4.1871037,-1.0770588,0,1
-0.5004159,-3.776101,0.92219865,0,1
-1.4571387,-3.1078343,0.12679389,0,1
-1.4269909,-2.7913847,-0.39797884,0,1
-1.1166306,-2.8267112,-0.5061112,0,1
-0.87917924,-2.7155557,-0.13340925,0,1
