Acc_x [m/s^2],Acc_y [m/s^2],Acc_z [m/s^2],AnyFall,NegOutcome
-0.056674242,0.04835415,-0.059585813,0,1
-0.051954668,0.05068493,-0.01991199,0,1
-0.053047247,0.053792953,0.003451099,0,1
-0.031260822,0.041719437,0.003829149,0,1
0.009001307,0.017386436,-0.023880797,0,1
0.011058798,0.035637856,-0.028451513,0,1
-0.008491204,0.03747177,-0.01380032,0,1
-0.02043894,0.024140358,-0.023243025,0,1
-0.017613444,0.027693748,-0.01816659,0,1
0.001270444,0.023029327,-0.002226794,0,1
0.004633192,0.023309708,-0.002517947,0,1
-0.03087128,0.041978836,-0.007321178,0,1
-0.053720083,0.029429436,0.01164045,0,1
-0.042965546,0.026986122,0.006732767,0,1
-0.034078427,0.05085659,0.006996256,0,1
-0.06285579,0.044499397,0.014128891,0,1
-0.043938633,0.012495041,0.033707637,0,1
-0.027554028,0.045707703,0.037053816,0,1
-0.03276801,0.050891876,0.015474627,0,1
-0.022940584,0.042307854,0.01665685,0,1
0.004898041,0.029491425,0.029428706,0,1
0.017460164,0.02446556,0.008843559,0,1
0.008783009,0.01307869,-0.011438176,0,1
0.000415058,0.005013466,-0.001189998,0,1
-0.011234984,-0.002753258,0.041566104,0,1
-0.011051714,0.005782127,0.048345406,0,1
-0.006220673,0.038877487,0.028876968,0,1
-0.036401153,0.018712044,0.02371839,0,1
-0.051442888,0.014678001,0.03361239,0,1
-0.05240347,0.014570236,0.03587506,0,1
-0.020390322,0.022821426,0.006273863,0,1
-0.008802232,0.032481194,-0.027964897,0,1
-0.0367461,0.027543068,0.003073864,0,1
-0.0324863,0.042220116,0.017599508,0,1
0.005004765,0.046827316,-0.012086429,0,1
0.016793324,0.033560753,-0.029686764,0,1
0.001069495,0.023427963,-0.014948178,0,1
-0.040456276,0.018810272,0.001620101,0,1
-0.054142475,0.006411552,-0.013883675,0,1
-0.054791667,0.015695572,-0.050081402,0,1
-0.058257006,0.03491497,-0.04572698,0,1
-0.04150259,0.04791069,-0.040447038,0,1
-0.030041315,0.037890434,-0.024023782,0,1
-0.012831469,0.03686428,-0.010506751,0,1
-0.000572139,0.047089577,0.012533664,0,1
-0.00170715,0.037487984,0.01136801,0,1
0.0058384,0.028242111,-0.021364225,0,1
0.022951238,0.05117321,-0.05266551,0,1
0.02943774,0.04813099,-0.035616726,0,1
0.038954828,0.016818047,-0.010092845,0,1
0.021041296,0.014535904,-0.009355272,0,1
0.014761549,0.025862694,0.003047735,0,1
0.004674617,0.03612137,0.000999699,0,1
-0.002848253,0.04459381,-0.014689527,0,1
0.008943911,0.041959763,-0.027439756,0,1
0.007665502,0.03042984,-0.012144305,0,1
-0.002243916,0.01786995,-0.003493993,0,1
0.009687602,0.01424408,0.005738039,0,1
0.023066062,0.019033432,0.006826554,0,1
0.039430782,0.04326248,-0.019016022,0,1
0.03972182,0.050070763,-0.026006823,0,1
0.023059692,0.035017967,-0.011145439,0,1
-0.007305294,0.027168274,0.01102687,0,1
-0.004232199,0.020781517,0.022208747,0,1
-0.011604522,0.032292366,-0.017170087,0,1
-0.014308484,0.03338051,-0.026183128,0,1
-0.017822284,0.016985893,-0.005975304,0,1
0.016787693,0.028784752,-0.006764537,0,1
0.02198204,0.029647827,-0.00472381,0,1
-0.00287561,0.026118279,-0.003465318,0,1
-0.008144032,0.02518177,-0.016036028,0,1
0.010087485,0.022288322,-0.02445287,0,1
0.014509309,0.022883415,-0.022079749,0,1
0.021835206,0.033988,-0.02279317,0,1
0.012085605,0.031216621,-0.005921803,0,1
0.017347455,0.022820473,-0.007321083,0,1
0.04588377,0.023142815,-0.01955054,0,1
0.03708495,0.004686356,-0.008623727,0,1
0.029108142,0.018022537,0.002099512,0,1
0.000196434,0.047329903,-0.00276548,0,1
0.001121647,0.05145073,-0.023336204,0,1
0.00989394,0.057061195,-0.02489254,0,1
0.005385228,0.037574768,-0.024923583,0,1
-0.015290953,0.026713371,-0.03860373,0,1
-0.023711752,0.042904854,-0.03450997,0,1
-0.003797957,0.03200245,-0.033321645,0,1
0.035808228,0.031240463,-0.05566786,0,1
0.035169832,0.044239044,-0.050975475,0,1
0.023938058,0.038261414,-0.026067585,0,1
0.015831426,0.012064934,0.022243867,0,1
0.029665532,-0.00347805,0.023238834,0,1
0.052391976,0.008061409,-0.025970565,0,1
0.028181735,0.03501606,-0.031831417,0,1
0.014555885,0.039426804,-0.025162112,0,1
0.02780689,0.042734146,-0.032116357,0,1
0.028750543,0.046941757,-0.031459395,0,1
0.02766701,0.031830788,-0.014895987,0,1
0.03744492,0.0435915,-0.004454305,0,1
0.048592515,0.048398018,-0.006080023,0,1
0.06705039,0.0533247,-0.01313649,0,1
0.057276987,0.042365074,-0.021368124,0,1
0.04412862,0.02724266,-0.037284695,0,1
0.072082095,0.032198906,-0.026230825,0,1
0.07748028,0.036652565,-0.015189428,0,1
0.039419446,0.03917694,-0.003781114,0,1
0.023700526,0.037359238,-0.013473084,0,1
0.03510696,0.028869629,-0.039618168,0,1
0.017263222,0.021068573,-0.018715432,0,1
0.007020909,0.027590752,-0.008340359,0,1
0.008881488,0.028176308,-0.023437701,0,1
0.014779205,0.03377533,-0.029774696,0,1
0.01872834,0.022826195,-0.031932943,0,1
0.01616353,0.002691269,-0.047481127,0,1
0.011414574,0.014997482,-0.059597787,0,1
0.018077703,0.025927544,-0.030393694,0,1
0.03394475,0.025701523,-0.017751466,0,1
0.054029588,0.03573513,-0.02092676,0,1
0.06407377,0.036003113,0.007659496,0,1
0.05209548,0.04130459,0.024818001,0,1
0.02124384,0.045482635,-0.002460111,0,1
0.015582887,0.040385246,-0.02646196,0,1
0.040352315,0.021665573,-0.037490286,0,1
0.019813478,0.02333355,-0.041065007,0,1
0.007860913,0.031036377,-0.05954823,0,1
0.014710345,0.028151512,-0.08204777,0,1
0.03104292,0.029019356,-0.07681534,0,1
0.025438908,0.028256416,-0.01948696,0,1
-0.008664791,0.022886276,0.019478127,0,1
0.005820469,0.023692131,0.003548859,0,1
0.036197226,0.044186592,-0.028329456,0,1
0.032503292,0.034273148,-0.035472963,0,1
0.019175416,0.020494461,-0.03898837,0,1
0.018582575,0.01779461,-0.03741922,0,1
0.023227999,0.020208359,-0.051707663,0,1
0.05724538,0.034092903,-0.09001906,0,1
0.056986235,0.032829285,-0.10388371,0,1
-0.00978772,0.004335403,-0.08620195,0,1
0.010388628,0.026035309,-0.104505,0,1
0.005526215,0.03846264,-0.10104246,0,1
0.00579805,0.053315163,-0.022281796,0,1
0.0094993,0.058779716,0.026820531,0,1
0.016438276,0.060753822,0.04270762,0,1
0.05257416,0.025168419,-0.00622721,0,1
0.05783584,0.018422127,-0.04591892,0,1
0.04104349,0.005361557,-0.07150908,0,1
0.05079992,-0.001838684,-0.045917563,0,1
0.055804588,-0.007404327,-0.05676196,0,1
0.06934181,0.021826744,-0.10040227,0,1
0.05985115,0.028367996,-0.099955685,0,1
0.004561358,0.024096489,-0.10446641,0,1
-0.003739,0.056872368,-0.06362786,0,1
0.018870747,0.097784996,0.0842094,0,1
0.02369716,0.024806023,0.21213882,0,1
0.007597828,0.015835762,0.23431739,0,1
0.001692161,0.027346611,0.10715017,0,1
0.011450794,0.03520584,-0.008751961,0,1
0.014276162,0.07626343,-0.13215159,0,1
0.00177951,0.03214836,-0.14713618,0,1
-0.003376177,0.019618034,-0.16034137,0,1
-0.002333472,-0.014906883,-0.11017089,0,1
-0.000254987,-0.02027893,-0.0555834,0,1
0.044332847,0.009012222,0.06613942,0,1
0.018896569,0.001344681,0.0643539,0,1
-0.03583298,-0.0066185,0.035216916,0,1
-0.03692581,0.005010605,0.018538143,0,1
0.002649046,0.04289055,-0.020510029,0,1
-0.01235605,0.08404732,-0.0925764,0,1
-0.041886654,0.06753445,-0.05304551,0,1
-0.042994156,0.040595055,-0.032487668,0,1
0.003391532,0.03304386,-0.04132028,0,1
-0.000870473,0.046154022,-0.056898635,0,1
-0.015854195,0.055321693,-0.066284955,0,1
0.024585396,0.032679558,-0.04282424,0,1
0.016585477,0.008646011,-0.038750276,0,1
0.057451263,0.04608059,0.028463038,0,1
0.08781234,0.07566643,0.08083114,0,1
0.09852556,0.052186012,0.037882566,0,1
0.06584449,0.037621498,-0.06973891,0,1
0.063860536,0.05723381,-0.10758398,0,1
0.06376034,0.039850235,-0.1615297,0,1
0.06975529,0.017734528,-0.13709283,0,1
0.04681419,-0.038599968,-0.09229954,0,1
0.029326282,-0.044034958,-0.07539665,0,1
0.04069376,-0.030453682,-0.08166251,0,1
0.102900386,0.0345459,-0.12829693,0,1
0.102795154,0.06751442,-0.16012175,0,1
0.09144596,0.07889557,-0.10726115,0,1
0.06178406,0.07135105,0.048725337,0,1
0.03395327,0.053587914,0.12469573,0,1
0.021897774,0.025344849,0.2381632,0,1
0.017841917,-0.005663872,0.22273485,0,1
0.022400904,0.03558731,0.042390756,0,1
0.025577083,0.082613945,-0.11755292,0,1
0.03479258,0.06450844,-0.14418592,0,1
0.06795574,-0.002148628,-0.18779428,0,1
0.053773515,-0.006443977,-0.22624698,0,1
0.035567567,0.018784523,-0.23332816,0,1
-0.01911366,0.04390049,-0.123656705,0,1
-0.058079623,0.057237625,-0.0854739,0,1
-0.05386438,0.07848644,-0.110313684,0,1
-0.01789577,0.07730484,-0.108569935,0,1
0.016326109,0.08208752,-0.032708295,0,1
0.015320361,0.02651596,0.088213764,0,1
0.018470291,-0.009951592,0.14002572,0,1
0.04505317,-0.005897522,0.12721305,0,1
0.052745163,0.021051407,0.060527135,0,1
0.076819286,0.079149246,-0.05715716,0,1
0.06783384,0.062218666,-0.060002904,0,1
0.04067434,0.028903008,-0.038536366,0,1
-0.016293779,0.020393372,-0.027964154,0,1
-0.034352086,0.031794548,-0.03441335,0,1
-0.04336448,0.030858994,-0.07833051,0,1
-0.037583493,0.031058311,-0.14379385,0,1
-0.011049571,0.02499485,-0.15214844,0,1
0.010652922,0.010735512,-0.092621215,0,1
0.01797176,0.005979538,-0.0652274,0,1
0.021353245,0.024154663,-0.03731831,0,1
0.02044545,0.036896706,-0.008033372,0,1
0.033553433,0.025619507,0.01684064,0,1
0.060657475,0.022218704,0.04845445,0,1
0.06497549,0.015335083,0.048566915,0,1
0.062847935,-0.009306908,0.032600954,0,1
0.02994339,0.026052475,-0.00768867,0,1
0.034853008,0.023736954,-0.037832685,0,1
0.027330168,0.042455673,-0.098340444,0,1
0.027336907,0.045404434,-0.122540906,0,1
0.05253411,0.03746414,-0.1600373,0,1
0.063829236,0.056672096,-0.14410365,0,1
0.08233363,0.06800556,-0.1351984,0,1
0.14886856,0.050691605,-0.1369501,0,1
0.18705493,0.042222977,-0.12850684,0,1
0.23481752,0.07438946,-0.17240876,0,1
0.26420662,0.063222885,-0.37003073,0,1
0.26996827,0.04464817,-0.48755342,0,1
0.32330838,0.021536827,-0.67119366,0,1
0.34730294,0.06643295,-0.71118605,0,1
0.33211267,0.13489437,-0.63045335,0,1
0.37828225,0.0806694,-0.4121433,0,1
0.4203643,0.05886841,-0.2881446,0,1
0.41952926,0.017121315,-0.06721221,0,1
0.3643674,-0.027348518,0.005762178,0,1
0.29565817,-0.09926224,0.022467352,0,1
0.22394633,-0.07979393,0.07878201,0,1
0.18725398,-0.066560745,0.12301297,0,1
0.16159,-0.031816483,0.18190153,0,1
0.16907473,-0.00428009,0.21238403,0,1
0.16154419,0.07178402,0.22737315,0,1
0.058004156,0.12399864,0.12596184,0,1
-0.07678611,0.098207474,0.11229773,0,1
-0.40990952,-0.09897995,0.19899678,0,1
-0.5060326,-0.21817493,0.18227717,0,1
-0.56853795,-0.36884594,0.02959865,0,1
-0.7273893,-0.1362238,0.18339798,0,1
-0.76740795,0.32920933,0.4530885,0,1
-0.40510255,1.1575937,0.52090156,0,1
-0.1813615,1.1627569,0.2400727,0,1
-0.26269612,0.47983646,-0.002781928,0,1
-0.8567971,-0.25157452,0.31048012,0,1
-1.1287323,-0.29526234,0.5356713,0,1
-1.7660217,-0.18954754,1.0395933,0,1
-1.8455383,-0.09108448,1.2501752,0,1
-1.5317811,-0.05591488,1.237587,0,1
-1.3487079,-0.30211353,0.7475691,0,1
-1.291031,-0.38939285,0.45533413,0,1
-1.2355328,-0.39081478,0.3704108,0,1
-1.2263975,-0.34917164,0.57120353,0,1
-1.1655047,-0.27071762,0.48229367,0,1
-1.2792373,-0.35262966,0.06630437,0,1
-1.3476385,-0.4241171,-0.005306333,0,1
-1.4840913,-0.5121355,-0.004991099,0,1
-1.5008615,-0.5485811,-0.11936635,0,1
-1.4469677,-0.56572247,-0.6332054,0,1
-1.2353667,-1.0160217,-0.9089968,0,1
-0.98786205,-1.24685,-0.983956,0,1
0.015398905,-0.2478981,-1.7132187,0,1
0.6504867,1.0008125,-2.2093403,0,1
1.6881753,3.1487465,-2.326196,0,1
2.0893762,3.008338,-0.6564018,0,1
1.9551613,1.5857172,0.9688037,0,1
2.090393,-1.1802015,2.486128,0,1
2.4051628,-0.80515194,1.8960791,0,1
2.1363966,0.8525219,-0.13822772,0,1
1.6434265,-0.05635166,-0.8636615,0,1
1.7249218,-0.7890625,-0.41638207,0,1
1.7224537,-1.4015436,0.42181015,0,1
1.4753295,-1.3353205,0.4791871,0,1
0.8763938,-0.6692772,0.059347324,0,1
0.25544384,0.1653595,-0.90605164,0,1
-0.055849135,0.31706715,-1.3037786,0,1
-0.29920268,0.14302254,-1.0872595,0,1
-0.13284573,-0.044552803,-0.528224,0,1
0.31429625,-0.38492298,0.2683872,0,1
0.507391,-0.43583107,-0.07630533,0,1
0.43990967,-0.4180174,-0.25516587,0,1
0.3357387,-0.3821478,0.061879687,0,1
0.421817,-0.18274784,0.35311258,0,1
0.3797673,-0.14319992,0.3520857,0,1
-0.32155555,-0.94241524,-0.50074506,0,1
-0.3369296,-0.72081375,-0.57417464,0,1
0.44436866,-0.15564156,0.16796324,0,1
0.4957324,-0.41781902,0.28475696,0,1
-0.038991086,-0.21413803,-0.163078,0,1
0.11590243,-0.014325142,0.07887339,0,1
0.013142556,-0.44168568,0.1951508,0,1
-0.3301095,-0.656744,-0.15686022,0,1
-0.2332188,-0.5645504,-0.25588384,0,1
0.20578727,-0.70730877,-0.060628958,0,1
0.169239,-1.0219889,0.15799987,0,1
0.055012576,-1.1870203,0.11305604,0,1
0.035800047,-1.557725,-0.117789656,0,1
0.06016393,-1.6369534,-0.1209422,0,1
0.16140471,-0.92663574,0.074842125,0,1
0.14964789,0.36911106,0.005031707,0,1
-0.05241108,0.6297989,-0.2611051,0,1
-0.53465664,0.33586502,-0.6518198,0,1
-0.5687088,0.15128422,-0.51885563,0,1
-0.2423338,0.1905222,0.34673607,0,1
-0.23865658,0.41928768,0.6828889,0,1
-0.45630854,0.80795383,0.5497168,0,1
-0.6839785,3.0606756,0.16712058,0,1
-0.5652608,4.123248,0.11387086,0,1
-0.35272202,4.377392,0.53460026,0,1
-0.3819304,3.1828108,0.94581616,0,1
-0.29255736,1.9978819,0.9858005,0,1
-0.0894447,-0.6184931,0.5657173,0,1
0.026194876,-1.4352503,0.27916965,0,1
0.31787252,-1.8232851,0.033337463,0,1
0.082135364,-1.3631611,-0.3088485,0,1
-0.16903448,-1.0066338,-0.41063738,0,1
-0.48616803,0.06983757,-0.14613242,0,1
-0.50055426,0.5883608,0.11444996,0,1
-0.32782185,0.9601021,0.38969502,0,1
-0.1967149,0.4714136,0.33177185,0,1
-0.13155481,0.21770859,0.26713604,0,1
0.072201274,-0.008782387,0.14253616,0,1
0.14000015,-0.033495903,0.017291429,0,1
0.015020626,-0.121193886,-0.21253827,0,1
-0.10581113,-0.17726612,-0.057554875,0,1
-0.11306904,-0.14349174,0.04673259,0,1
-0.18189994,0.023087502,0.08945958,0,1
-0.22059254,0.07928467,0.052566186,0,1
-0.20421986,0.13304329,0.05198828,0,1
-0.062114436,0.21957874,0.117704034,0,1
0.015592814,0.20558167,0.13096233,0,1
0.0250778,0.0327816,0.18083373,0,1
-0.02536963,-0.03570175,0.1204857,0,1
-0.09473305,-0.03924656,-0.06447195,0,1
-0.13067955,-0.018016815,-0.035354543,0,1
-0.13389751,-0.028188705,-0.012514496,0,1
-0.14413871,0.04674816,0.09401761,0,1
-0.15937243,0.090088844,0.16514872,0,1
-0.15646863,0.1899252,0.19834444,0,1
-0.18158728,0.10604,0.12098862,0,1
-0.17641279,0.017634392,0.11519795,0,1
-0.1210916,-0.000415802,0.098174065,0,1
-0.09401662,0.013118744,0.07850488,0,1
-0.10814244,0.036203384,0.07867171,0,1
-0.11117454,0.046076775,0.1416433,0,1
-0.07873986,0.064323425,0.14218247,0,1
-0.05528245,0.045578957,0.087090276,0,1
-0.0692197,0.017044067,0.0870471,0,1
-0.09219898,0.008455277,0.13410886,0,1
-0.12871698,0.03440094,0.16502783,0,1
-0.16749874,0.069298744,0.13978152,0,1
-0.31510994,0.07132244,0.15681602,0,1
-0.28537884,0.09731197,0.022750098,0,1
0.15905271,0.15252209,-0.4163342,0,1
-0.1831293,-0.34062767,0.22796272,0,1
-0.2088235,-0.15508842,0.21938305,0,1
0.07769658,0.32402706,-0.05807241,0,1
0.081994586,0.14706707,0.06046224,0,1
-0.04196154,-0.2552986,0.1944204,0,1
0.014038211,-0.010410309,0.24242789,0,1
0.03331819,0.14156723,0.2294008,0,1
-0.000979589,0.28635693,-0.13658231,0,1
0.058842894,0.20115566,-0.4769933,0,1
0.10666528,-0.32394886,-0.06551598,0,1
0.04807601,-0.109259605,0.17720322,0,1
-0.06764783,0.053406715,0.18011126,0,1
-0.14970899,0.31865406,0.14835899,0,1
-0.09243693,0.40369987,-0.022266952,0,1
-0.04703082,0.05774021,-0.27627543,0,1
0.13177179,-0.32203102,0.19039816,0,1
0.13733163,-0.26472187,0.38065282,0,1
-0.044473726,0.13571548,0.16912585,0,1
-0.025397118,0.35026073,-0.038926143,0,1
-0.031610645,0.3490305,-0.33395857,0,1
0.075492054,-0.2560053,-0.21622366,0,1
0.15950194,-0.4632759,0.11318138,0,1
0.10612586,-0.11869812,0.4341472,0,1
0.07765515,0.23906994,0.25189912,0,1
0.009449212,0.40906525,0.035001907,0,1
-0.28445402,0.031212807,0.07186329,0,1
-0.28031924,-0.088959694,-0.28909218,0,1
0.07576389,-0.36182785,-0.22668691,0,1
0.1518682,-0.42547703,0.15549831,0,1
0.031528533,0.05736351,0.4736407,0,1
-0.005992316,0.4589758,0.08151909,0,1
-0.020422341,0.28796864,0.085952915,0,1
-0.06087339,0.051556587,0.14362106,0,1
-0.05662749,0.061911583,-0.12904651,0,1
0.10199138,-0.24493122,-0.55952245,0,1
0.1744199,-0.4756031,0.2624655,0,1
0.110962376,-0.14420795,0.5355771,0,1
0.03768222,0.56516933,0.25492492,0,1
-0.023410758,0.44864368,0.13557237,0,1
-0.05491422,0.028030396,0.13228148,0,1
0.043255277,0.017209053,-0.005794203,0,1
0.07936642,-0.053546906,-0.06060257,0,1
0.04691465,-0.22358227,-0.04080466,0,1
-0.000377269,-0.15838432,-0.06441775,0,1
0.018330052,0.031042099,-0.6211543,0,1
0.13999489,-0.10465717,-0.04733929,0,1
0.11713603,0.016464233,0.5057715,0,1
0.2153146,0.4700718,0.62961864,0,1
0.21321753,0.23476505,0.68921685,0,1
-0.028152399,-0.4455967,0.68736416,0,1
0.041721962,-0.08375645,-0.14367822,0,1
-0.018545052,0.1206789,-0.25738487,0,1
-0.35128945,0.16629982,-0.34968135,0,1
-0.2941526,0.21566868,-0.40751684,0,1
-0.06558501,0.25842762,-0.28374204,0,1
0.1323501,-0.05853939,0.08903827,0,1
0.20680517,-0.19763947,0.33875823,0,1
0.21823591,-0.07575512,0.4659335,0,1
0.19196954,0.08060551,0.33837843,0,1
0.1412238,0.11304188,0.14303419,0,1
0.036870763,-0.010239601,0.10625437,0,1
0.004724164,-0.020050049,0.06800321,0,1
0.02635048,0.07066822,-0.056423727,0,1
0.040667195,0.082603455,-0.07743872,0,1
0.036185525,0.020219803,0.0612048,0,1
0.052211702,0.007570267,0.21199594,0,1
0.08337268,0.018163681,0.24918103,0,1
0.089365736,0.017298698,0.23651016,0,1
0.049178384,-0.00376606,0.18682848,0,1
-0.003807795,-0.047715187,0.019966189,0,1
0.00756365,-0.004040718,-0.11523928,0,1
-0.03376999,-0.03170204,-0.12780893,0,1
-0.08013416,-0.10842705,-0.07296942,0,1
-0.03067444,-0.028718948,-0.041717835,0,1
0.0756924,0.17930984,0.045256834,0,1
0.09013313,0.08119774,0.1731122,0,1
0.11145348,0.008951187,0.21778424,0,1
0.13952526,0.036729813,0.26342636,0,1
0.119916275,0.04258728,0.2621277,0,1
0.058920622,-0.022950172,0.19593796,0,1
0.053129364,0.014417648,0.06280317,0,1
0.045085695,0.0236969,0.060903277,0,1
0.006956368,-0.010357857,0.09820697,0,1
0.026148537,-0.012192726,0.08233932,0,1
0.09230987,-0.002383232,0.08701367,0,1
-0.0259661,-0.04018402,0.08791726,0,1
-0.17521246,-0.04001236,0.07528264,0,1
-0.10174107,0.16179466,0.13512298,0,1
0.012203732,0.18979168,0.16330232,0,1
-0.029500458,0.020908356,0.01629319,0,1
0.01406972,0.022744179,-0.07708849,0,1
0.115216576,0.03630066,-0.014863505,0,1
0.09365077,0.013219833,0.095087856,0,1
0.044262722,0.060201645,0.03248905,0,1
0.102695145,0.10567284,-0.010455638,0,1
0.1244661,-0.09463978,0.1745876,0,1
0.07949997,-0.12787151,0.19316307,0,1
0.04073196,0.03330517,0.07219624,0,1
0.02900491,0.06257248,0.03771127,0,1
-0.003755739,-0.01868534,0.007379474,0,1
0.037302874,0.036118507,-0.00850639,0,1
0.04877536,0.058092117,0.033305712,0,1
0.0514455,0.009926796,0.13346702,0,1
0.023750506,-0.020092964,0.17240298,0,1
0.041269876,0.021448135,0.22574866,0,1
0.0884839,0.030423164,0.12757188,0,1
0.058230944,0.02380085,0.0749133,0,1
0.037854355,0.05692959,0.009482401,0,1
0.028648525,0.072239876,0.01978978,0,1
0.057397384,0.09279537,0.016490228,0,1
0.048723456,0.020196915,0.05960129,0,1
0.007211762,-0.012040138,0.079828,0,1
0.03682086,-0.011313438,0.11326749,0,1
0.1050698,-0.000592232,0.09046218,0,1
0.15398932,-0.06589222,-0.014653598,0,1
0.050000533,0.020054817,-0.05974844,0,1
0.050034452,0.11301327,-0.14932992,0,1
0.0853883,0.011698723,-0.16376725,0,1
0.037068754,-0.07802105,-0.024821686,0,1
-0.000806465,0.01731205,0.099969834,0,1
0.009729994,0.05273056,0.16956912,0,1
-0.030149108,0.018567085,0.21294554,0,1
-0.053183064,0.027350426,0.18599248,0,1
-0.021223933,0.006122589,0.12207345,0,1
0.031858906,-0.02947712,0.064078584,0,1
0.13023259,0.07776451,0.08252588,0,1
0.14188142,0.11452961,0.054756757,0,1
0.122330114,0.072707176,0.048688818,0,1
0.119008936,0.029304504,0.0732132,0,1
0.07471035,-0.027446747,0.012003901,0,1
0.04188376,0.03650379,-0.07959866,0,1
0.050203264,0.023893356,-0.058677286,0,1
0.07108365,-0.07522106,0.13837573,0,1
0.07822607,-0.046218872,0.21715017,0,1
0.03118906,0.017849922,0.16368982,0,1
-0.06662401,-0.024823189,0.012814466,0,1
-0.055319756,0.008358955,0.003264248,0,1
0.01987989,0.054947853,0.15600686,0,1
0.031233422,0.05874729,0.20333266,0,1
0.004632025,-0.005925178,0.116499536,0,1
0.08339401,-0.12037563,0.08088888,0,1
0.11438384,-0.16384411,0.11145133,0,1
0.048609756,-0.1486044,0.1749704,0,1
0.05486965,-0.019759178,0.09346608,0,1
0.12137866,0.1965599,0.105787836,0,1
0.19997829,0.17494011,0.21707588,0,1
0.21708216,0.10202122,0.06469243,0,1
0.019688908,-0.19165325,-0.22009094,0,1
-0.08257125,-0.27471542,-0.07068209,0,1
0.013633385,-0.10488415,0.27426842,0,1
0.13650686,0.13207531,0.27875876,0,1
0.1325337,0.23976326,0.2516393,0,1
0.11970946,0.23193455,0.37126237,0,1
0.12851486,0.119158745,0.498146,0,1
0.10075978,0.030859947,0.70181245,0,1
0.081253625,0.295125,0.59689134,0,1
0.100857824,0.34194088,0.45862976,0,1
0.024610639,0.061674118,0.47056037,0,1
-0.020901091,-0.073182106,0.5339705,0,1
-0.02780763,-0.06480026,0.60473704,0,1
-0.10686192,0.16001701,0.52307636,0,1
-0.07549743,0.20330334,0.5175935,0,1
-0.00765457,0.047733307,0.66195035,0,1
-0.054866843,-0.01941967,0.706563,0,1
-0.12840597,0.024404526,0.51104677,0,1
0.15089086,0.30489063,0.419227,0,1
0.29689214,0.3810463,0.4913731,0,1
0.44075495,0.46944332,0.5437741,0,1
0.5655331,0.5265541,0.631234,0,1
0.873417,0.19279766,0.93934536,0,1
0.82514715,0.35916996,1.0418671,0,1
0.5164083,0.9800005,0.885291,0,1
-0.4657046,2.1584692,-0.3268441,0,1
-0.67089826,2.385952,-0.7821966,0,1
-0.6700558,2.8507023,-0.62563515,0,1
-0.46905062,2.6009855,0.10536964,0,1
-0.19247626,2.373991,0.4675674,0,1
0.13640381,1.2612534,0.72376096,0,1
0.13600838,0.5440359,0.6654399,0,1
0.09689516,-0.30390358,0.41754234,0,1
0.12180431,-0.34125042,0.17837325,0,1
0.14890958,-0.21763706,0.05220763,0,1
0.20196591,-0.13705349,-0.075280525,0,1
0.175815,-0.25531292,-0.025120744,0,1
0.07017429,-0.47843838,0.032520317,0,1
0.09658229,-0.5828934,0.0743597,0,1
0.06356028,-0.7081518,0.020481879,0,1
-0.16833773,-1.1713905,-0.26990354,0,1
-0.22662835,-1.4482965,-0.4204185,0,1
-0.32600254,-1.5983934,-0.8807221,0,1
-0.48603106,-1.1563711,-1.340423,0,1
-0.5262407,-1.0526667,-1.3754839,0,1
-0.30724847,-0.99754715,-1.1591488,0,1
-0.07924912,-0.86147404,-1.4392684,0,1
-0.14571632,-1.0056,-1.2521343,0,1
-0.67110246,-1.6425962,0.09980453,0,1
-0.72847825,-1.6723547,0.3998378,0,1
-0.517371,-1.1152353,0.29238242,0,1
-0.32204843,-0.82811546,0.20531178,0,1
-0.029227315,-0.32429123,0.035381623,0,1
0.020154275,0.37509537,-0.5277703,0,1
0.088481374,0.5031948,-0.9329565,0,1
0.24298145,-0.11399269,-1.0645576,0,1
0.24866492,-0.37583733,-0.8876982,0,1
0.16552076,-0.25537205,-0.67748636,0,1
0.12361277,0.2374363,-0.59418577,0,1
0.11972399,0.39954662,-0.44115043,0,1
0.07178156,0.3154087,-0.13419881,0,1
0.057561267,0.15493298,-0.13049817,0,1
0.1605969,0.016740799,-0.30124956,0,1
0.30605307,0.099598885,-0.25067547,0,1
0.2574128,0.08232117,-0.225162,0,1
0.15985143,0.066903114,-0.22574991,0,1
0.19431219,0.10236263,-0.268657,0,1
0.22209741,0.07009125,-0.14044476,0,1
0.14127427,-0.0562315,0.09543545,0,1
0.13202219,-0.08053303,0.13464439,0,1
0.16649202,-0.017974854,0.0877179,0,1
0.19744006,0.002673149,0.041026995,0,1
0.18801022,0.08905029,0.0631964,0,1
0.21820565,0.07084656,0.17882282,0,1
0.20584618,0.055077553,0.24170353,0,1
0.10657131,0.07277775,0.2208327,0,1
0.0676664,0.031897545,0.16297543,0,1
0.040917862,-0.060694695,0.05553872,0,1
0.07608267,0.080976486,0.018355742,0,1
0.058001086,0.09967041,0.013613276,0,1
-0.05377964,0.012773514,-0.03249705,0,1
-0.10686404,0.002129555,-0.046889305,0,1
-0.1690278,0.04353428,-0.05073109,0,1
-0.100587934,0.047344208,-0.11123937,0,1
-0.026149152,0.06307697,-0.103512734,0,1
0.00419488,0.025408745,-0.07310378,0,1
-0.014485846,-0.006727219,-0.041701507,0,1
0.018105062,-0.034770012,-0.023762334,0,1
0.04511058,0.052758217,-0.05221038,0,1
0.053206053,0.06903839,-0.04317557,0,1
0.043563034,0.023584366,0.006064365,0,1
0.04167455,0.014770508,0.034349654,0,1
0.04416483,0.031049728,0.07332075,0,1
-0.002577245,0.003545761,0.014259011,0,1
-0.02493561,0.000636101,-0.043809377,0,1
-0.020087996,0.042550087,-0.12043451,0,1
-0.030046381,0.05030346,-0.11388661,0,1
-0.1042978,-0.009272575,-0.086168006,0,1
-0.07472679,-0.015372276,-0.025722027,0,1
-0.03743773,0.004734039,0.029691681,0,1
0.06231726,0.050331116,0.12373018,0,1
0.100814626,0.06153202,0.1323472,0,1
0.10661062,0.020980835,0.08150239,0,1
0.069939494,0.014260292,0.028629746,0,1
0.06391686,0.04439068,0.021503666,0,1
0.030318059,0.07299423,-0.012701617,0,1
0.004050646,0.057861328,-0.031311825,0,1
-0.06745879,0.018481255,-0.099440984,0,1
-0.14227937,0.024139404,-0.13826732,0,1
-0.17028908,0.033885002,-0.15558147,0,1
-0.19022852,0.034217834,-0.19734024,0,1
-0.18546134,0.006742477,-0.15779693,0,1
-0.08984094,0.006313324,-0.02750674,0,1
0.15228836,0.06935406,0.039337542,0,1
0.21871068,0.03991127,0.031083852,0,1
0.16166188,0.001387596,-0.13620079,0,1
0.1347505,0.052801132,-0.25674638,0,1
0.08202576,0.14235973,-0.3655399,0,1
0.09388496,0.026917458,-0.2175391,0,1
0.13771184,-0.056715965,-0.11249934,0,1
0.20381334,-0.036467552,0.13205157,0,1
0.20811687,-0.026284218,0.18480964,0,1
0.0570243,0.001724243,-0.13995953,0,1
-0.17694956,0.11547184,-0.4635833,0,1
-0.256917,0.08456802,-0.50512797,0,1
-0.20981696,0.024432182,-0.36842635,0,1
-0.1331597,-0.019968987,-0.27252957,0,1
-0.037056312,-0.017498016,-0.12928757,0,1
0.08094133,0.02534008,0.002162594,0,1
0.15392452,0.028669357,0.10202766,0,1
0.25589776,0.005120277,0.3805334,0,1
0.30143204,0.027698517,0.45467505,0,1
0.35349506,0.09049511,0.42820987,0,1
0.3274424,0.03243637,0.3904526,0,1
0.33636072,-0.02148819,0.3921414,0,1
0.3378042,-0.07485294,0.267481,0,1
0.32589176,-0.07192612,0.15018705,0,1
0.34891337,-0.035467148,0.015355129,0,1
0.43626866,-0.028395653,-0.002137225,0,1
0.47350422,0.02560711,-0.00633917,0,1
0.44174308,0.09336567,0.02750196,0,1
0.3947064,0.017700195,0.04956514,0,1
0.3491297,-0.18649006,0.06720652,0,1
0.5075299,-0.12009621,0.06644221,0,1
0.60650396,-0.020484924,0.07892369,0,1
0.6322046,-0.06284523,0.09776253,0,1
0.63207495,-0.13007641,0.15932262,0,1
0.7675595,-0.058927536,0.37841576,0,1
0.8486064,-0.17312908,0.59978056,0,1
0.91763884,-0.2841854,0.6947826,0,1
1.0859177,-0.19494152,0.7012047,0,1
1.1535246,-0.1599369,0.68965745,0,1
1.339343,-0.059342384,0.8273826,0,1
1.2125623,0.40083218,0.7451068,0,1
1.1089393,0.70352745,0.6108651,0,1
1.1394138,0.9324436,0.6305728,0,1
1.0330653,0.914505,0.59989864,0,1
0.49542412,1.0763655,0.3304212,0,1
0.307998,0.89710903,0.339432,0,1
0.16195092,0.8453932,0.1365924,0,1
-1.1767805,0.67764664,-1.317937,0,1
-2.0257897,0.2516842,-2.0026422,0,1
-2.5526063,-0.5662832,-1.8690252,0,1
-1.4295237,0.15694809,-0.78928363,0,1
-0.67787886,0.6788521,-0.43022925,0,1
0.05389729,0.45907402,-0.14353707,0,1
-0.12592681,-0.22391129,-0.16575687,0,1
-0.8022432,-1.0632849,-0.36297143,0,1
-1.1455065,-0.912138,-0.30309123,0,1
-1.1218294,-0.93092155,-0.15478054,0,1
-0.553128,-1.3199692,0.30572474,0,1
-0.058601692,-1.4168606,0.5241935,0,1
0.86738276,-1.150938,0.8074482,0,1
1.2680314,-0.8241091,0.8850999,0,1
1.1359986,-0.684535,0.79509306,0,1
0.19149137,-0.15566635,0.4871664,0,1
-0.16213413,0.23543072,0.5261115,0,1
0.8694716,1.0184498,1.3972011,0,1
2.2478619,1.778305,1.417528,0,1
1.6188673,2.7376385,0.22350581,0,1
-0.7830389,4.7292576,-1.8053259,0,1
-1.5714715,3.4090643,-1.4748732,0,1
-2.0274796,-1.7302217,-0.5540437,0,1
-1.5744696,-2.1598182,-1.7953043,0,1
-1.5859587,-1.0517435,-2.5326242,0,1
-1.782264,-0.07213783,-2.264481,0,1
-1.483656,-0.077952385,-1.5898831,0,1
-0.16621765,-0.34567738,-0.46484837,0,1
0.6198295,-0.9942064,0.024207234,0,1
0.6746321,-1.2699347,0.053394012,0,1
1.0035831,-1.274436,-0.15276971,0,1
1.3941535,-1.0315485,-0.13294101,0,1
1.797262,-0.60849094,0.22909825,0,1
0.9018006,-0.50063705,-0.008905076,0,1
0.42969084,-0.46868706,-0.13785231,0,1
0.13901672,-0.18146133,-0.090710685,0,1
0.25493494,-0.004272461,0.027179042,0,1
0.7684561,0.09582806,0.6907397,0,1
1.6497015,-0.20927525,1.5121526,0,1
1.9098225,-0.02639389,1.873091,0,1
2.0203342,1.8186626,0.62760234,0,1
2.053096,2.6647654,-1.4235753,0,1
-0.4809212,2.4538984,-4.831237,0,1
-4.1674166,0.17638016,-3.2210515,0,1
-3.9633024,0.12777615,-1.8136271,0,1
-0.68142885,0.37494373,-0.6845763,0,1
1.0402281,0.34402275,-0.5561154,0,1
1.5962596,0.22315788,-0.7703125,0,1
-0.41367564,-0.74866295,-0.53095204,0,1
-0.63564336,-1.0800924,-0.25228137,0,1
0.26179764,-1.156743,-0.34763438,0,1
0.52733994,-1.1013994,-0.60991794,0,1
0.29023787,-1.4620266,-0.76722884,0,1
0.3871321,-1.7497683,-0.8416994,0,1
0.46777642,-1.530262,-0.99545705,0,1
0.2868844,-0.45464897,-1.2622943,0,1
0.15645915,0.24086094,-1.0370162,0,1
-0.115136884,0.91086483,-0.17829117,0,1
-0.35955334,0.34634972,0.39183137,0,1
-0.58418673,0.16053677,0.3066113,0,1
-1.8642316,1.2267599,-0.15394889,0,1
-2.8537023,2.8057423,-0.7065519,0,1
-3.0552142,5.0203514,-2.4859972,0,1
-0.5209391,-1.2304106,-3.3404603,0,1
-0.090194136,-3.4189825,-3.7916625,0,1
-1.7170423,-2.388486,-3.3477972,0,1
-2.3914454,-1.1249323,-2.262845,0,1
-2.0920403,0.17649937,-0.99736273,0,1
-1.6316258,-0.3342266,-1.7866358,0,1
-1.8534613,-0.39093304,-2.0681667,0,1
-2.8443213,0.82177544,-1.4042342,0,1
-3.1752052,1.3723764,-0.43773365,0,1
-2.4311504,0.088214874,1.7266736,0,1
-0.57643616,-1.4377184,2.4118624,0,1
-0.09108499,-1.8840656,2.555323,0,1
0.16329737,-2.2493172,2.5260658,0,1
0.3451801,-2.001638,1.8961593,0,1
0.62246203,-0.22915077,0.38249484,0,1
1.2869148,1.1887579,-0.11180772,0,1
1.2006627,1.0318985,-0.73144084,0,1
-0.8563022,1.6981859,-2.8950777,0,1
-1.5189519,2.2456083,-3.2827268,0,1
0.19798651,1.2912827,-0.9441354,0,1
1.548648,-0.21323586,0.07446511,0,1
1.1630926,-0.79076195,-0.52941376,0,1
0.16842496,-2.3076425,-1.8872555,0,1
0.048677176,-3.1290922,-2.1894054,0,1
0.45867577,-4.0936456,-1.8696283,0,1
0.7138203,-2.8997617,-0.4095708,0,1
0.6374975,-1.1744652,0.3255737,0,1
-0.09402619,2.050084,-0.33035332,0,1
-0.5881244,1.992301,-0.55637306,0,1
-0.39968997,0.33122063,-0.46204197,0,1
-0.488001,2.4940138,-0.719592,0,1
-0.9188389,3.049779,-0.9256128,0,1
-1.3098841,0.9738407,-1.0321577,0,1
-1.0855324,0.12043762,-0.7316723,0,1
-0.8822133,0.5346489,0.10334795,0,1
-0.64705783,0.51769733,0.26582193,0,1
-0.7183645,-0.040960312,-0.07134499,0,1
-0.89015883,-1.3053818,-0.50404775,0,1
-0.82076955,-1.6237688,-0.546438,0,1
-0.5152238,-2.2256618,-0.714579,0,1
0.03161309,-1.3078423,-0.9695279,0,1
0.057568744,-1.0934734,-1.1891358,0,1
-0.06471122,-0.7996092,-1.093309,0,1
0.343595,-0.49069023,-1.0264931,0,1
0.7274111,-0.14840412,-1.5197102,0,1
1.1446717,-0.23613358,-2.0248213,0,1
1.034241,-0.19891262,-2.0215347,0,1
1.060205,0.35771942,-2.4468675,0,1
1.3054177,0.6111841,-2.442001,0,1
1.5374279,0.7988987,-1.8821828,0,1
0.43708917,0.16938972,-2.2296941,0,1
0.21720664,0.05070591,-2.0526125,0,1
0.25197393,0.29060936,-0.89605546,0,1
0.007586651,0.45564938,-0.29902646,0,1
-0.57922417,-0.10876274,0.36950445,0,1
-0.23838553,-0.33087444,1.877218,0,1
0.18040064,0.39055824,2.2674248,0,1
1.0880127,1.9407101,1.6359168,0,1
0.80634665,1.8766956,1.7948729,0,1
-0.70375085,1.1086359,1.8976101,0,1
-0.44547302,0.4681883,0.96900374,0,1
-0.01968269,-0.009003639,1.0956559,0,1
0.33663625,-0.68010235,0.58159333,0,1
0.51952404,-0.4691496,-0.3178837,0,1
0.5247555,-1.6241407,-0.86677516,0,1
-0.26279858,-3.8103762,0.22718386,0,1
-0.9663346,-3.125945,0.712062,0,1
-0.99252117,-1.2681875,0.9636214,0,1
-0.18099213,-1.5666599,0.91779596,0,1
0.71981275,-1.5383682,1.003165,0,1
1.096264,-0.9313526,0.6975781,0,1
0.9721048,-0.14198208,0.8746791,0,1
0.52841806,1.4928865,0.65631235,0,1
0.24670622,1.4109583,0.48016,0,1
0.5368818,0.3645525,0.92630994,0,1
0.5618545,0.27174664,1.177782,0,1
0.5634198,0.7160511,1.2121162,0,1
0.6411122,0.6506777,0.9577515,0,1
0.5581925,0.3380823,1.0537623,0,1
1.9841924,0.043001175,1.1624925,0,1
2.1706586,-0.23632812,-0.47563222,0,1
1.1279387,0.36933994,-1.4487255,0,1
-0.17927913,4.1016693,-3.019104,0,1
0.047344238,5.7039995,-2.8637848,0,1
0.7604432,5.056285,-1.9742857,0,1
0.08199442,2.9845676,-0.7605255,0,1
-0.56073266,1.9633245,0.029350922,0,1
-1.7463393,-0.39549732,0.41415596,0,1
-1.5949574,-1.4567919,0.27117875,0,1
0.10494706,-3.069553,-0.27222613,0,1
-0.18750635,-2.4007998,-0.30623847,0,1
-0.5506823,-1.3413115,-0.32682705,0,1
-0.5708466,-0.57498074,-0.38050932,0,1
-0.8458023,-0.271348,-0.32697326,0,1
-1.231159,1.7285461,-0.41446748,0,1
-0.75824946,2.844118,-0.7877809,0,1
-0.16918784,2.2507439,-1.4185009,0,1
1.2470183,1.0105867,-1.9375318,0,1
1.811357,0.4894781,-1.3497741,0,1
1.6178056,-0.89506435,-0.8536131,0,1
1.0976431,-2.0112143,-0.27417195,0,1
0.7619094,-2.2419462,0.069704406,0,1
0.33880958,-1.5278988,0.2140823,0,1
-0.10429804,-0.70070267,0.0725082,0,1
-0.6116199,0.71729374,-0.4340362,0,1
-0.41934395,2.0071821,-0.80857563,0,1
-0.18628433,2.3955574,-0.8482157,0,1
0.38728002,2.0846748,-1.3428826,0,1
0.44574708,1.4696207,-1.3934233,0,1
0.7239235,-0.3030405,-0.60180694,0,1
-0.5009447,-2.4304066,-0.31869847,0,1
-0.775334,-1.737895,-0.2667694,0,1
0.44148588,-0.25667572,-0.13524488,0,1
0.18438596,-0.68142414,-0.2076688,0,1
-0.087013155,0.3039732,0.036704622,0,1
0.936656,1.681901,0.17085451,0,1
0.82362884,0.85818386,0.3027405,0,1
-0.34089148,-0.23525906,0.3864497,0,1
0.061697174,0.20219898,0.15496054,0,1
0.33080623,-0.32779026,0.028300948,0,1
-0.33854187,-0.8603554,0.13552973,0,1
-0.09078112,-0.31722736,0.017192243,0,1
0.13033208,0.6896572,-0.17914426,0,1
0.06582539,0.9713621,-0.3435432,0,1
0.1583615,0.33567715,-0.6422063,0,1
0.1647828,-0.5012522,-0.60217077,0,1
0.13656238,-0.409688,-0.59240043,0,1
-0.18543875,-0.33854103,-0.4827716,0,1
-0.23498704,-0.58100986,-0.45808262,0,1
-0.19858432,-0.91890717,-0.6102134,0,1
-0.34760332,-0.32847595,-0.22086939,0,1
-0.3284718,0.06725407,0.095373586,0,1
0.043664955,-0.42667866,0.1531591,0,1
0.32674155,-0.6140194,-0.027183834,0,1
0.13771763,-0.3412466,0.02612436,0,1
0.33541986,0.2883768,0.22649534,0,1
0.47957742,0.645463,0.20062827,0,1
0.5490549,0.5954275,0.19367433,0,1
0.49416208,0.37934208,0.14446816,0,1
0.36637205,0.063326836,-0.07243154,0,1
0.20651445,-0.047419548,-0.20401156,0,1
0.060605932,-0.030633926,-0.2128715,0,1
-0.07844749,0.024763107,-0.1366752,0,1
-0.031046616,0.12084484,-0.12302305,0,1
0.15449707,0.004319191,-0.15733604,0,1
0.5807491,-1.3460026,-0.045830894,0,1
0.6395017,-1.7146568,0.3413669,0,1
-0.21986318,0.07864094,0.50752723,0,1
-0.40401205,1.5612011,0.17149289,0,1
0.065625876,2.13204,-0.18570657,0,1
-0.3939448,0.9050131,-0.052643877,0,1
-0.5323976,0.46069717,0.10678541,0,1
-0.35433513,-0.32880497,0.04316715,0,1
-0.4564952,-0.6962042,-0.2555368,0,1
-1.041128,-0.8241644,-0.59029454,0,1
-0.65475017,-0.3023224,-0.42635706,0,1
-0.46986106,-0.20010948,-0.35204142,0,1
-0.22441155,0.052375793,-0.35002503,0,1
-0.05290528,-0.040444374,-0.33954877,0,1
-0.0337008,0.04871559,-0.037407607,0,1
-0.23946577,0.5971441,-0.17128716,0,1
-0.032972038,0.19191837,-0.18337825,0,1
0.54405737,-0.8699932,-0.063052006,0,1
0.44630113,-0.6605997,0.100066915,0,1
0.047919326,0.61327076,0.3158573,0,1
-0.15447527,0.6443062,0.04927867,0,1
0.046396956,0.28804588,0.003737819,0,1
0.13280293,0.046412468,0.05031375,0,1
0.086782895,-0.13484478,0.05126387,0,1
-0.052901663,-0.028993607,0.17961133,0,1
-0.340214,0.6447573,0.049837455,0,1
-0.3871888,0.33840752,-0.07536456,0,1
-0.16854843,-0.22227001,-0.23988135,0,1
-0.048128255,-0.18654633,-0.19130419,0,1
0.11965604,-0.34132385,-0.017866781,0,1
-0.011508811,-0.080067635,0.033884674,0,1
-0.17969956,0.20746231,0.008717883,0,1
-0.27638,0.25226402,-0.08386184,0,1
-0.06584882,0.34032345,-0.10632338,0,1
-0.21637878,0.54205036,0.040331304,0,1
-0.16864341,0.07377529,-0.07168625,0,1
-0.21865977,0.007736206,-0.17358033,0,1
-0.036801726,-0.12183952,-0.22897248,0,1
0.039894756,-0.3694811,-0.0819519,0,1
0.04746809,-0.591115,0.10921287,0,1
0.06920169,-0.3206091,0.10975666,0,1
0.043288156,-0.07732487,0.06986029,0,1
0.024882678,0.028820992,0.001691129,0,1
-0.030425929,0.17234898,-0.062472098,0,1
-0.19904348,0.4152918,-0.062806115,0,1
-0.16238725,0.09492397,0.13241857,0,1
-0.21631135,-0.02624321,0.14058425,0,1
-0.30474025,0.034874916,-0.005809151,0,1
-0.24758323,-0.052170753,-0.10964902,0,1
-0.11326413,-0.2934742,-0.13484924,0,1
-0.12718192,-0.005784035,-0.025279153,0,1
-0.07730163,0.15993404,0.034135014,0,1
-0.05302074,0.082880974,0.036090393,0,1
-0.058763366,-0.120734215,-0.008148627,0,1
-0.082616545,-0.5209074,-0.1280687,0,1
-0.08950538,-0.007082939,-0.025043106,0,1
-0.16424373,0.24973965,0.055504195,0,1
-0.21648163,0.014702797,0.1366408,0,1
-0.040188998,-0.11722088,0.14152184,0,1
0.12694816,-0.05974865,0.065225,0,1
0.05610459,0.1914854,0.038985085,0,1
-0.045264028,0.17917633,0.012517485,0,1
-0.1501693,-0.021471977,0.033663195,0,1
-0.055951446,-0.052947044,0.08518114,0,1
-0.10600373,-0.23089123,0.10233016,0,1
-0.26852846,-0.08647823,-0.07815218,0,1
-0.29967675,0.21909237,-0.06566681,0,1
-0.26254383,0.6212435,0.057235017,0,1
-0.0993453,0.45977497,0.015598107,0,1
0.22713205,-0.11608219,-0.06382999,0,1
0.12521642,-0.5115862,-0.07091956,0,1
0.07304973,-0.4662571,-0.08575716,0,1
-0.04462094,-0.007169724,-0.11538516,0,1
-0.08181098,0.13919163,-0.16341281,0,1
-0.13950127,0.3971176,-0.1811268,0,1
-0.1607485,0.25998783,0.019398896,0,1
-0.19858529,0.1111393,0.09896366,0,1
-0.24736986,-0.21862984,-0.003575614,0,1
-0.2612036,-0.21155548,-0.09991142,0,1
-0.12662894,-0.08156967,-0.054334592,0,1
0.12785369,0.07824993,0.045841355,0,1
0.13480905,0.26098442,0.047772944,0,1
0.105447434,0.35767555,-0.000693943,0,1
0.10046066,0.23796463,0.005441736,0,1
-0.01688312,-0.09064102,-0.048518572,0,1
-0.18021947,-0.09249973,-0.13493823,0,1
-0.253412,-0.031399727,-0.18012121,0,1
-0.18243593,0.12745476,-0.16418672,0,1
-0.17844775,0.22104931,-0.1274277,0,1
-0.13309959,0.11285782,-0.043950852,0,1
-0.02915215,-0.15619946,-0.07929178,0,1
0.038779728,-0.13393307,-0.09622469,0,1
0.1741869,-0.16326523,-0.036724824,0,1
0.19375552,-0.12353039,-0.0081935,0,1
0.0986626,0.1606884,-0.01500047,0,1
0.12440327,0.005484581,0.001525581,0,1
0.087809026,-0.002435684,0.015811961,0,1
0.003586492,0.16178226,0.038675606,0,1
-0.004741685,0.1313057,0.042577922,0,1
-0.030516613,-0.0371027,0.021244852,0,1
-0.09886895,0.075671196,-0.07046003,0,1
-0.13522291,0.21863651,-0.08557831,0,1
-0.08951282,0.5180197,-0.074454084,0,1
-0.047843438,0.39583302,-0.079177566,0,1
0.037258476,-0.16348743,-0.13068798,0,1
-0.03607171,-0.22561169,-0.11971453,0,1
-0.009180962,-0.23923779,-0.09043198,0,1
0.082287185,-0.37696934,-0.073525086,0,1
0.09168239,-0.2825737,-0.065359,0,1
0.1307861,0.029133797,-0.065646455,0,1
0.045528818,0.51074123,-0.016815359,0,1
-0.046199705,0.66647816,-0.001915973,0,1
-0.10056656,0.32868958,0.024938822,0,1
0.003751935,0.031208038,0.0975937,0,1
0.18375817,-0.246521,0.13096154,0,1
0.08113228,-0.23810577,0.016128508,0,1
0.04328901,-0.06004238,-0.022512006,0,1
0.096557185,0.1498146,-0.05660578,0,1
0.124165654,0.14845371,-0.03800051,0,1
0.17942931,0.044859886,-0.04469206,0,1
0.0728352,-0.11782837,-0.072443634,0,1
0.051719833,0.080096245,-0.059779838,0,1
0.022736032,0.16111755,-0.06515859,0,1
-0.1115499,-0.18492699,-0.01783364,0,1
-0.15463993,-0.36869526,-0.053014755,0,1
-0.06367918,0.091296196,-0.14964929,0,1
-0.038751945,0.22861385,-0.10614359,0,1
0.008201353,0.209054,0.07833248,0,1
0.09215651,0.21238041,0.01923468,0,1
0.22375318,0.118468285,-0.110073864,0,1
0.04288204,-0.37683582,0.13271116,0,1
0.003128968,-0.4245081,0.1868431,0,1
0.012338189,-0.10492802,0.11514675,0,1
0.007085439,-0.031760216,0.07524386,0,1
0.044961937,-0.17521095,0.10237246,0,1
0.03755235,-0.30221748,0.14736341,0,1
0.037854586,-0.21334267,0.05426264,0,1
0.03472339,-0.22711754,-0.2115795,0,1
0.15311104,-0.499568,-0.24910071,0,1
0.22800258,-0.80454826,0.30011505,0,1
0.041511256,0.10460186,0.2140411,0,1
-0.004187169,0.4774065,-0.09161896,0,1
-0.21950509,0.8964615,0.03740787,0,1
-0.057103176,0.73473835,0.06438881,0,1
0.2873546,0.2326889,-0.017850185,0,1
0.24320365,-0.13625813,-0.112516515,0,1
0.10781242,-0.15303326,-0.118849225,0,1
-0.10110579,-0.10759449,-0.12276014,0,1
-0.14633006,-7.72E-05,-0.08528901,0,1
-0.13805705,0.24015999,-0.1118386,0,1
0.044286903,-0.104320526,0.05293925,0,1
0.03895016,-0.012440681,0.21873689,0,1
-0.15548696,0.5829935,0.12705624,0,1
-0.19127274,0.50377464,-0.12175083,0,1
0.022732697,-0.5442152,-0.27844012,0,1
0.23241228,-0.8134413,0.31262624,0,1
0.10319571,-0.1952734,0.38054553,0,1
-0.14059505,1.2172003,0.16259383,0,1
-0.085323416,1.3215408,0.038820673,0,1
0.1823188,-0.04908943,-0.023171533,0,1
0.22125897,-1.144948,-0.000223674,0,1
0.17091314,-0.99439526,0.10325259,0,1
-0.1636599,0.52021027,0.15400118,0,1
-0.29292318,1.0853777,-0.003345061,0,1
-0.103690155,0.5521126,-0.15454474,0,1
0.09832231,-0.71183395,0.037951015,0,1
0.11266216,-1.0563917,-0.006805129,0,1
-0.08330314,-0.046423912,0.06235138,0,1
-0.17045729,0.7940569,0.1309654,0,1
-0.09501206,0.8782644,-0.023273388,0,1
0.17045479,-0.15809917,4.45E-05,0,1
0.25163147,-0.6981058,-0.051226012,0,1
0.024650525,-1.4012289,0.17047688,0,1
-0.13574749,-0.6510954,0.17519009,0,1
-0.16600513,1.0425491,0.029473338,0,1
0.5032686,0.9168968,-0.19484612,0,1
0.3478879,0.23218346,-0.11304084,0,1
0.22681525,-0.89175224,-0.051059257,0,1
0.10293661,-1.4392824,-0.10614096,0,1
-0.18045032,-2.2943535,-0.003978595,0,1
-0.1982137,-0.30458164,0.12192771,0,1
-0.2930144,1.0600939,0.10841394,0,1
-0.23821127,2.0612946,0.2147478,0,1
-0.149624,1.5671082,0.21256417,0,1
-0.20048141,0.2049303,0.005788721,0,1
0.14906746,-0.79602814,0.002744684,0,1
0.2105456,-1.3447828,0.066847734,0,1
0.38156056,-2.2681127,0.07566742,0,1
0.20646866,-1.708643,0.24821682,0,1
-0.48649484,1.3329144,0.19220862,0,1
-0.33320168,2.7828503,0.05184104,0,1
-0.34514573,2.1760092,0.07825488,0,1
-0.35262138,0.005161285,0.020348279,0,1
-0.017892381,-0.74984455,-0.0290465,0,1
0.61087346,-2.406147,-0.24766442,0,1
0.26602906,-2.0963511,0.141042,0,1
-0.14548968,-0.35989475,0.19050682,0,1
-0.29073772,3.0555468,-0.101271,0,1
-0.26399845,3.3314676,0.003630705,0,1
-0.20785968,1.046876,0.08930236,0,1
0.35273328,-1.3820639,0.09247853,0,1
0.5361574,-2.1321712,0.107614614,0,1
0.36617947,-2.2376075,-0.029392252,0,1
0.012984674,-1.316927,0.03987846,0,1
-0.4712511,1.6502953,-0.082872465,0,1
-0.3541685,2.7779217,-0.017407484,0,1
-0.29718518,1.984149,0.06412092,0,1
-0.063978285,-0.38313484,0.05433701,0,1
0.29634234,-1.3085222,-0.03671754,0,1
0.5105273,-2.7989216,-0.0376111,0,1
-0.25012815,-0.99953556,0.27067006,0,1
-0.4339143,0.9747734,0.124297544,0,1
-0.36678618,3.1049328,-0.084259406,0,1
-0.3607844,2.4294214,0.007641897,0,1
0.018191684,-0.20515347,0.08179638,0,1
0.51706636,-2.1971402,0.038967095,0,1
0.51995814,-2.78679,-0.054438878,0,1
-0.2552653,-1.4218674,0.1683631,0,1
-0.52452815,0.48713207,0.12971492,0,1
-0.48844647,3.1066217,-0.097834885,0,1
-0.15996546,1.3901758,-0.07033248,0,1
0.11679136,-0.12722397,0.024508681,0,1
0.47521093,-2.190648,-0.015276458,0,1
0.3789817,-2.5161953,-0.070370056,0,1
-0.43163007,-0.54100895,0.23579147,0,1
-0.49979973,2.1528072,-0.09242366,0,1
-0.41364688,2.2568712,-0.25118095,0,1
-0.14344794,0.39766026,-0.16260964,0,1
0.032845892,-0.7009268,0.020279549,0,1
0.3385138,-2.0757298,-0.024199462,0,1
-0.09625048,-1.3582668,0.33082023,0,1
-0.33419967,0.13289547,0.43629846,0,1
-0.36159188,2.6422005,-0.04323715,0,1
-0.23206751,2.3913336,-0.22399409,0,1
-0.025139725,-0.33926868,0.019610455,0,1
0.20082414,-1.1138067,0.055668615,0,1
0.16853459,-0.85641766,-0.08861243,0,1
-0.035586927,-1.0895901,-0.2516792,0,1
-0.0917445,-1.3909836,-0.14565836,0,1
-0.27259007,0.030806541,0.21652472,0,1
-0.3307068,2.0903664,0.2204037,0,1
-0.3555943,2.170889,0.13939455,0,1
-0.14794044,0.3498602,-0.043800138,0,1
0.035222538,-0.8320675,-0.16171739,0,1
0.20535323,-1.4336796,-0.17428172,0,1
0.12499713,-0.93122196,-0.036666088,0,1
-0.1512513,-0.6655836,0.13162681,0,1
-0.4334052,0.93682575,0.16882,0,1
-0.39702314,1.5969477,0.06684648,0,1
-0.3275072,1.1353569,0.10194093,0,1
-0.34814084,-0.357378,0.21578923,0,1
-0.30274743,-0.42925453,0.09468699,0,1
0.19605859,-0.2928486,-0.14650282,0,1
0.42141572,-0.4899788,-0.3141152,0,1
0.06293155,-0.9692373,-0.43285766,0,1
-0.20451488,-0.8858099,-0.21535242,0,1
-0.041247383,-0.58250713,-0.11222103,0,1
0.27082083,0.26111317,0.22244868,0,1
0.04530022,0.7165613,0.38961774,0,1
0.04171836,1.2384148,0.39273518,0,1
0.11258572,0.8026314,0.10342163,0,1
0.111421734,0.3896246,0.050150257,0,1
0.027700901,-0.24698448,0.07895309,0,1
-0.036224537,-0.27577877,0.07749495,0,1
-0.42922625,-0.17696857,0.1726016,0,1
-0.7418969,-0.2039442,0.076890744,0,1
-0.65385234,-0.2939291,-0.13497467,0,1
-0.33472806,-0.2900753,-0.17456178,0,1
-0.19317168,-0.14234447,-0.25913984,0,1
-0.030280672,0.15993023,-0.25830317,0,1
-0.13788663,0.28507137,-0.058679156,0,1
-0.15611227,0.22961712,0.022322912,0,1
0.0213178,-0.11627865,-0.029704573,0,1
0.06375856,-0.12594128,-0.054193184,0,1
-0.049605567,-0.115324974,-0.07504685,0,1
-0.024153592,0.4647274,7.58E-05,0,1
-0.022160938,0.83498096,0.05933409,0,1
-0.14039728,0.3641901,0.07044952,0,1
-0.16631861,0.031687737,0.043390345,0,1
-0.22907089,-0.13615513,0.09917098,0,1
-0.41389012,-0.40768242,0.022451045,0,1
-0.52415955,-0.388628,-0.10205745,0,1
-0.39506522,0.038354874,-0.18603876,0,1
-0.21524432,0.12564182,-0.14158043,0,1
0.026085965,0.15827751,-0.08328863,0,1
0.041309245,0.08182621,-0.1386371,0,1
-0.014741369,-0.066096306,-0.18869483,0,1
-0.1691578,-0.43734932,-0.18824267,0,1
-0.14539175,-0.28534985,-0.104538895,0,1
-0.024017207,0.23573685,0.015695132,0,1
-0.139141,-0.1726036,-0.0438607,0,1
-0.17391115,-0.33138752,-0.06260976,0,1
-0.16456841,0.05691433,0.013137926,0,1
-0.16952704,0.19783306,0.021684451,0,1
-0.10239586,-0.10206509,-0.074046016,0,1
-0.046187766,0.09369278,-0.10728193,0,1
-0.057063054,0.30942822,-0.11454008,0,1
0.00374807,0.29412842,-0.064058855,0,1
0.042041123,0.44363117,-0.05653719,0,1
-0.170568,0.2100296,-0.12902004,0,1
-0.33818653,-0.10852909,-0.041821454,0,1
-0.26874566,-0.14987469,-0.008088194,0,1
-0.069645114,-0.35928535,-0.042071573,0,1
-0.006695016,-0.47453022,-0.06302927,0,1
0.15664619,-0.1111927,-0.10036872,0,1
0.15888979,0.7222147,0.052375633,0,1
0.0784246,0.72235966,0.055958156,0,1
-0.054661233,0.101018906,-0.021204147,0,1
-0.09518,-0.16729069,-0.018018177,0,1
-0.17759584,-0.20453548,-0.068932675,0,1
-0.13691254,-0.13168621,-0.089278184,0,1
-0.064769246,-0.19007969,-0.075238876,0,1
0.06486838,-0.10426617,-0.034646414,0,1
0.09391242,0.006474495,-0.045053635,0,1
0.09752805,-0.15187836,-0.15591918,0,1
0.13485672,0.009613037,-0.118457556,0,1
0.16796295,0.45089054,-0.008847517,0,1
0.0692913,0.58975124,0.10001018,0,1
-0.020704618,0.092923164,0.058187768,0,1
-0.19667846,-0.44046402,-0.048701927,0,1
-0.21369706,-0.244668,-0.016940316,0,1
-0.12506127,-0.21406269,-0.006694281,0,1
0.014305634,-0.07581997,-0.055166107,0,1
0.039747514,0.016652107,-0.06495984,0,1
0.07831938,0.25893784,-0.08064326,0,1
0.016775157,0.3020897,-0.1276194,0,1
0.008553168,0.19476128,-0.1558364,0,1
0.030077672,0.09292698,-0.11847768,0,1
0.020021481,0.001330376,-0.1075146,0,1
-0.028712206,-0.31876373,-0.16509117,0,1
0.10873986,-0.23632812,-0.024607807,0,1
0.20860681,-0.19897938,0.055517174,0,1
0.004272575,0.05964279,0.037801113,0,1
0.054732405,0.1699419,0.039029352,0,1
0.018540036,0.4118681,0.049992338,0,1
0.0487476,0.2871456,0.002974642,0,1
0.045611616,0.13898468,-0.041682303,0,1
-0.01259931,-0.09483719,-0.08508949,0,1
-0.005686275,-0.20598412,-0.10827255,0,1
0.031949818,-0.19976711,-0.10440481,0,1
0.09024483,-0.033329964,-0.003092676,0,1
0.06171149,-0.000506401,0.008302549,0,1
0.03577161,0.032679558,-0.06121327,0,1
0.027049847,0.03469467,-0.06976633,0,1
0.07528234,-0.09170437,-0.049134012,0,1
0.040705238,-0.06407833,-0.03765795,0,1
0.017128153,0.001734734,-0.02504339,0,1
0.014072327,0.03685856,-0.07012817,0,1
0.032606695,0.06450558,-0.07096788,0,1
0.060810488,-0.11119938,0.021835273,0,1
0.07304169,-0.10011768,0.007683074,0,1
0.06763706,0.104460716,-0.001031969,0,1
-0.068389475,0.2742052,0.06014615,0,1
-0.098175555,0.3513651,0.082119085,0,1
-0.029499078,0.33200932,0.060093764,0,1
-0.04896479,-0.017949104,-0.014437022,0,1
0.08588098,-0.13025379,-0.08798638,0,1
0.42573193,0.1725893,0.13531929,0,1
0.20497014,0.3740492,0.21327801,0,1
-0.1534277,0.29636097,0.001870254,0,1
-0.15214603,-0.16169262,-0.12525547,0,1
-0.15737814,-0.19202709,-0.18401076,0,1
0.10664124,0.050930023,-0.029435609,0,1
0.18964945,0.120759964,0.12838808,0,1
0.054480143,0.06873989,0.08539129,0,1
0.055110052,-0.04618168,-0.017310113,0,1
-0.008857416,-0.094182014,-0.09026924,0,1
0.003932649,0.12517834,0.039080963,0,1
0.054583903,0.3158884,0.1842209,0,1
0.03620168,0.12276554,0.13934764,0,1
-0.110344246,-0.20645523,-0.13597952,0,1
-0.120011225,-0.18760967,-0.1867118,0,1
-0.044642124,0.31357002,0.024076847,0,1
-0.019548329,0.45130157,0.14815906,0,1
0.007758289,0.10611057,0.059759255,0,1
-0.10311715,-0.29336643,-0.14603955,0,1
-0.12315797,-0.46327877,-0.15280657,0,1
-0.047157235,-0.101579666,0.022697767,0,1
-0.07167927,0.3705492,0.11107896,0,1
0.12543127,0.5463877,0.1733063,0,1
0.074789286,-0.068992615,-0.053963143,0,1
-0.004672674,-0.22746181,-0.12589613,0,1
-0.13625635,-0.37179947,-0.0906326,0,1
-0.24827448,-0.4149332,-0.021648487,0,1
-0.37885568,0.14847088,0.06336139,0,1
-0.020257276,0.36484337,-0.034133967,0,1
0.13635649,0.41119385,-0.034741614,0,1
0.17669506,0.077368736,0.08513177,0,1
0.09171947,-0.16843414,0.03867947,0,1
-0.12755923,-0.2670536,-0.023417506,0,1
-0.23897149,-0.208745,0.011278322,0,1
-0.24643832,-0.14660358,-0.016344367,0,1
-0.16916221,0.28309155,0.045268074,0,1
-0.06185759,0.40127945,0.06163819,0,1
0.15135624,0.44341564,0.08975787,0,1
0.3633428,0.38845348,0.35096002,0,1
0.38084084,0.07310009,0.37701398,0,1
0.19707653,-0.044150352,0.14793327,0,1
0.057522744,0.17296219,0.061645225,0,1
-0.12707157,0.04823208,-0.08590602,0,1
0.4753984,0.76461506,0.003776692,0,1
0.67828166,1.0761213,0.25706497,0,1
0.27501678,0.6141844,0.7794043,0,1
0.09169775,0.13779926,0.6178351,0,1
-0.3627295,-0.33790302,-0.22531979,0,1
-0.30470863,-0.1706419,-0.51516,0,1
-0.22486559,-0.21546555,-0.5023999,0,1
0.32231265,0.21231079,-0.20787676,0,1
0.23754635,0.3008108,0.039247904,0,1
-0.075156845,-0.14324188,0.23699608,0,1
0.16278796,-0.167243,-0.23135659,0,1
0.4204697,0.14134502,-0.1772775,0,1
-0.058231674,0.3908329,0.7040305,0,1
-0.2837182,0.11566448,0.8754221,0,1
-0.43825483,-0.12313175,0.2697101,0,1
-0.4766267,0.13163185,-0.26389542,0,1
-0.6309003,0.027724266,-0.24124101,0,1
-0.3919245,-0.15216732,0.044062592,0,1
0.066159524,0.044913292,0.13534352,0,1
0.87633556,0.28412914,0.4556746,0,1
0.91297126,0.213727,0.38833258,0,1
0.65233237,0.00488472,0.18733664,0,1
0.22457135,-0.13415718,0.031160673,0,1
0.12485835,-0.106666565,0.07043341,0,1
-0.29934058,-0.21591473,0.3502906,0,1
-0.09368416,0.15737152,0.69698286,0,1
0.36820257,0.38208485,0.7334421,0,1
0.94691813,0.5789404,0.38351482,0,1
0.8561373,0.41338062,0.09929506,0,1
-0.13360077,-0.10424137,0.08008024,0,1
-0.758315,-0.22575474,0.68593895,0,1
-0.51225376,-0.57263374,0.37424916,0,1
-0.49547133,-0.8572302,-0.36258563,0,1
-0.88487303,-0.58837223,-0.12724099,0,1
-1.4489233,-0.03243637,-0.09501295,0,1
-1.2319506,0.014767647,-0.31521016,0,1
-1.007551,-0.048812866,-0.25094172,0,1
-0.62347627,0.5536995,-0.47362655,0,1
-0.38799995,0.74400425,-0.248282,0,1
-0.2536446,0.5219116,1.093857,0,1
0.12642755,0.10665035,0.9897833,0,1
0.1609259,-0.15406132,0.5163563,0,1
-0.06006915,-0.14163208,0.52667826,0,1
-0.09108005,0.036546707,0.7077167,0,1
0.42366374,0.69660664,0.56526065,0,1
0.24650669,1.1463671,0.5058295,0,1
0.010524184,1.3778372,0.9195459,0,1
-0.054467887,2.2297697,1.4344785,0,1
0.112748355,2.4890862,1.5575273,0,1
0.36713728,1.4345741,1.3275898,0,1
0.4856341,0.33947945,0.49265972,0,1
0.54803085,-0.12802505,0.29684842,0,1
0.54257905,-0.91491127,0.44693947,0,1
0.3660726,-0.84013367,0.7442218,0,1
-0.038716473,-0.52473164,0.9640468,0,1
0.13139483,-0.5428524,0.07600815,0,1
0.07071522,-0.22811699,-0.4216926,0,1
-0.2798037,0.29399872,-0.8134147,0,1
-0.47577152,0.059426308,-0.78187084,0,1
-1.0890204,0.28313637,-0.5662393,0,1
-1.653302,1.1842422,-0.423729,0,1
-1.8914496,1.1739893,-0.25579983,0,1
-2.118839,0.015497208,-0.011907041,0,1
-1.9901241,-0.688344,-0.14205028,0,1
-1.4244174,-1.2863188,-0.8031614,0,1
-0.85964596,-0.2954235,-0.83561957,0,1
-0.641469,0.39520836,-0.38625786,0,1
-0.09209612,0.6674452,-0.00674376,0,1
0.03319785,0.31710434,-0.10086435,0,1
-0.27832288,-0.24342632,0.40867528,0,1
-0.4925559,-0.75734997,0.6073945,0,1
-0.4921452,-0.9896803,0.7257083,0,1
-0.14552194,-1.0763826,1.0078884,0,1
0.06327325,-0.91437817,0.99508363,0,1
0.30257744,-0.5274868,0.85537165,0,1
0.4666013,-0.49739456,0.37912354,0,1
0.5376351,-0.1782732,0.38140607,0,1
0.6284478,0.77424526,0.9309851,0,1
0.5942911,0.9269409,0.92428976,0,1
0.67148155,0.7900753,0.20063823,0,1
0.6430816,0.46461487,-0.6648456,0,1
0.547878,0.5414047,-1.1513814,0,1
0.31863064,1.0555401,-1.6897217,0,1
0.4448825,1.4715624,-1.4118466,0,1
0.96459395,1.1835909,-0.46908987,0,1
0.10373502,-0.4210186,-0.9514284,0,1
-0.4786874,-0.13350391,-1.6949332,0,1
-1.0434917,1.8633947,-1.6443894,0,1
-0.74408984,2.2827454,-0.7828847,0,1
-0.31795377,1.1299381,-0.2788992,0,1
-0.7791116,0.4119568,-1.7010413,0,1
-0.7159541,0.6887846,-1.8011231,0,1
0.2064252,0.67410564,-0.75953233,0,1
0.57103807,0.34817886,-0.22727336,0,1
0.66608787,0.21747303,0.119516306,0,1
0.37439743,0.56493855,-0.4110556,0,1
0.25209033,0.65635777,-0.7798528,0,1
0.06058997,0.33159256,-1.1037829,0,1
-0.15667301,-0.07064533,-0.8654606,0,1
-0.63960177,-1.2297373,0.29461893,0,1
-1.019783,-1.4205046,0.91877395,0,1
-1.0477915,-1.1932783,0.8069918,0,1
-0.71892107,-1.1207819,0.33201292,0,1
-0.3892904,-1.472023,0.26450068,0,1
-0.10467024,-2.4646006,0.3540184,0,1
-0.7187204,-3.386262,0.37023234,0,1
-0.9531079,-3.622405,0.34449095,0,1
-1.1392907,-3.557054,0.55094606,0,1
-1.0581975,-3.3721318,1.242382,0,1
-0.25159422,-2.0401592,2.238492,0,1
0.09429054,0.25236416,0.49467686,0,1
0.008742079,1.0045033,-0.7024228,0,1
0.035801917,0.69562817,-1.9349487,0,1
0.16717759,0.4780054,-2.1701608,0,1
1.5571809,2.67198,-2.7185254,0,1
3.146595,3.7325382,-2.1715763,0,1
1.3596276,1.332263,-2.0080812,0,1
-1.4355594,-2.7360811,-1.5203946,0,1
-1.2745626,-2.7968006,-0.8060855,0,1
1.084329,0.33761215,-0.30703667,0,1
1.6911138,0.8593569,-0.5896914,0,1
1.3927084,0.55698776,-0.53918016,0,1
0.009774413,-0.46526146,-0.3437233,0,1
-0.5218383,-0.64561653,-0.06198331,0,1
0.19829524,-0.26909733,0.42342243,0,1
0.9094378,-0.059103012,-0.26288626,0,1
1.0882541,0.22101402,-0.584705,0,1
1.3346962,0.62744045,-0.53974867,0,1
1.0528253,0.22886086,-0.05108746,0,1
0.07521895,-0.50180244,1.4711068,0,1
-0.06677455,-0.05121994,1.9136479,0,1
0.1568261,0.16917324,1.5099763,0,1
0.50559145,0.112238884,-0.23304631,0,1
0.52847296,-0.014990807,-1.1331694,0,1
0.34021688,-0.11114025,-0.8759359,0,1
0.3750013,0.01944542,0.63477874,0,1
0.26811126,-0.09685898,0.435939,0,1
0.26672044,-0.6886196,-0.7301078,0,1
0.35715014,-0.68609715,-1.1528487,0,1
0.4615924,-0.21249008,-1.4150685,0,1
0.10137807,0.18006039,-0.4751228,0,1
-0.49365658,0.5249214,-0.1365728,0,1
-1.8279443,1.1679726,-0.23912305,0,1
-2.24197,1.1132002,-0.47931176,0,1
-1.7584893,0.4362669,-1.0844039,0,1
-0.74116486,0.47569084,-0.43326205,0,1
-0.6402502,0.7594061,-0.044916086,0,1
-1.3241231,-0.22501564,-0.6178267,0,1
-1.8856316,-0.8071947,-0.8364763,0,1
-1.8941373,-0.53606224,-0.42042845,0,1
-1.2195338,-0.003911018,-0.27032286,0,1
-1.0506153,-0.0622015,-0.35080653,0,1
-0.9349971,-0.57424927,-0.8865913,0,1
-0.7635207,-0.65168095,-1.0113549,0,1
-0.29981247,-0.46952152,-0.6716301,0,1
-0.14804989,-0.049583435,-0.54038066,0,1
-0.18745935,0.05874729,-0.5049236,0,1
-0.23191816,0.31612778,-0.48634613,0,1
-0.1786636,0.73282814,-0.3745618,0,1
-0.46731865,1.0479994,0.119204015,0,1
-1.0968252,0.05202961,0.27394176,0,1
-1.0842066,-0.36573696,0.18608822,0,1
-0.65130013,-0.5705271,0.11740133,0,1
-0.3797031,-0.5533924,0.033410557,0,1
0.18254855,-0.36470222,-0.20469823,0,1
0.639335,-0.07099533,-0.13529205,0,1
0.7007901,0.19898129,-0.11801545,0,1
0.29614684,0.60259247,0.054189023,0,1
-0.046857074,0.35291386,0.09692074,0,1
-0.61833435,-0.37784958,0.16945691,0,1
-0.54891825,-0.101221085,0.31670964,0,1
-0.30490753,0.07917881,0.23087117,0,1
0.18910058,0.0809288,-0.07012566,0,1
0.3789703,0.079794884,-0.17202996,0,1
0.4521694,0.04522133,-0.0966675,0,1
0.028545273,0.055761337,0.16561683,0,1
-0.15450943,0.09502697,0.26071993,0,1
-0.2902483,0.092782974,0.2951451,0,1
-0.26241416,0.03215599,0.27919793,0,1
-0.057321,-0.04196453,0.0612624,0,1
0.0899428,0.104281425,-0.16525209,0,1
0.07692294,0.16833591,-0.22958061,0,1
-0.07361647,0.08894825,-0.28567883,0,1
-0.12810677,0.029883385,-0.23823906,0,1
-0.15993372,-0.015106201,-0.098214574,0,1
-0.0748027,-0.012439728,-0.1196555,0,1
-0.017993404,-0.017136574,-0.16625348,0,1
-0.010948642,0.06030941,-0.16774812,0,1
-0.06497296,0.066755295,-0.14500822,0,1
-0.19118218,0.040081978,-0.06812562,0,1
-0.26243353,0.003082275,-0.046048544,0,1
-0.2966709,-0.030168533,-0.07244805,0,1
-0.30008796,-0.030817986,-0.047144398,0,1
-0.22920078,0.004982948,-0.05378762,0,1
-0.041303866,0.08019829,-0.112353936,0,1
0.049954407,0.076028824,-0.17680135,0,1
0.10666932,0.06223011,-0.18488465,0,1
0.13642633,0.044088364,-0.1903989,0,1
0.08447382,0.023674011,-0.20032497,0,1
0.04900477,0.007504463,-0.23430786,0,1
0.09443495,0.019431114,-0.21654435,0,1
0.089473575,0.03341484,-0.2026887,0,1
0.057981677,0.029170036,-0.19237557,0,1
0.030486928,0.028839111,-0.17826273,0,1
0.07873668,0.040513992,-0.1417789,0,1
0.08641793,0.045319557,-0.17030399,0,1
0.08168857,0.061127663,-0.18101999,0,1
0.03972765,0.03304577,-0.20870121,0,1
-0.005593451,0.034766197,-0.20482394,0,1
-0.048114706,0.035161972,-0.18678135,0,1
0.003480386,0.040353775,-0.18865262,0,1
0.023827897,0.061694145,-0.1863915,0,1
0.025766782,0.04951954,-0.21341999,0,1
0.024739984,0.04203987,-0.20888832,0,1
-0.025531624,0.02196598,-0.19286339,0,1
-0.06586029,0.027253151,-0.14642912,0,1
-0.060632296,0.031090736,-0.1433408,0,1
-0.027831215,0.047244072,-0.15169968,0,1
-0.008246559,0.052384377,-0.13505076,0,1
0.002949486,0.054059982,-0.14703247,0,1
-0.011425338,0.035559654,-0.16191298,0,1
-0.009497598,0.014344215,-0.1526539,0,1
-0.03476249,-0.001133919,-0.12694849,0,1
-0.04088135,0.01845169,-0.12570377,0,1
-0.012402932,0.001000404,-0.14471868,0,1
0.03217169,0.022270203,-0.122341335,0,1
0.04630767,0.048947334,-0.119714126,0,1
0.057967033,0.027350426,-0.12585144,0,1
0.022232704,0.020098686,-0.113649756,0,1
-0.04445695,0.015628815,-0.105797455,0,1
0.008137175,0.019197464,-0.10281773,0,1
0.032100607,0.027381897,-0.10414685,0,1
0.06862615,0.029164314,-0.11858792,0,1
0.09381017,0.024730682,-0.11528136,0,1
0.07902975,0.024699211,-0.13243991,0,1
0.008491719,0.037485123,-0.13755324,0,1
-0.035668932,0.055420876,-0.13290691,0,1
-0.065427184,0.035731316,-0.115945056,0,1
-0.046953566,0.011212349,-0.10461011,0,1
-0.05728128,0.06258869,-0.10422275,0,1
-0.13227168,0.07041073,-0.08790341,0,1
-0.12241493,0.023007393,-0.0807504,0,1
0.007429939,-0.008195877,-0.07574964,0,1
0.0506899,0.028653145,-0.07731615,0,1
0.025506575,0.028102875,-0.1130442,0,1
-0.03896104,-0.024160385,-0.14247373,0,1
-0.051402945,-0.021348,-0.13789847,0,1
-0.07787209,-0.03011322,-0.118517,0,1
-0.098597966,-0.018400192,-0.114747174,0,1
-0.066156216,0.07599163,-0.12872003,0,1
-0.05572535,0.11305046,-0.094704844,0,1
-0.06118224,0.0783968,-0.09369562,0,1
-0.20558918,0.038959503,-0.121546075,0,1
-0.36711282,0.03479576,-0.0710181,0,1
-0.5589743,-0.08543301,-0.006805241,0,1
-0.36129126,-0.04426098,0.050078105,0,1
-0.33293846,0.02854824,0.14144434,0,1
-0.4726971,0.009084702,0.18869957,0,1
-0.526653,0.000571251,0.17625915,0,1
-0.60129744,0.034234047,0.10397632,0,1
-0.7169133,0.030982018,0.01992099,0,1
-0.74581325,-0.019669533,0.09701921,0,1
-0.6052586,-0.122247696,0.42808318,0,1
-0.45113522,-0.19952106,0.48093444,0,1
-0.075608015,-0.6538305,0.051767923,0,1
0.22471856,-0.90090847,-0.54732573,0,1
0.15544163,-0.4977255,-0.5621843,0,1
-0.12554355,0.74124336,0.08029949,0,1
-0.40598744,0.8551321,0.10593197,0,1
-1.433271,0.31502533,-0.49664924,0,1
-1.7052921,0.33071232,-0.6131472,0,1
-1.348228,0.5491295,-0.52758026,0,1
-0.69917005,0.48880005,-0.59051377,0,1
-0.62335837,0.05112934,-0.6921906,0,1
-0.8549799,-0.7241936,-0.3829757,0,1
-0.86604226,-0.43254757,0.17725337,0,1
-0.6285375,0.041873932,0.15449837,0,1
-0.24046378,0.60724163,-0.12628682,0,1
-0.18211694,0.68568325,-0.28320083,0,1
0.10109314,0.85828495,-1.4671038,0,1
1.567804,1.2319508,-2.1098406,0,1
2.2196527,0.9409418,-1.2315568,0,1
2.4962647,-0.6091976,1.8724219,0,1
2.8624263,-0.6632576,2.7804444,0,1
3.348379,-0.37843227,1.6994126,0,1
2.1635132,-0.041687965,-0.089151055,0,1
1.6616148,0.01421833,-0.058001384,0,1
2.09777,-0.2939005,0.7965828,0,1
2.588394,-0.382329,0.7833108,0,1
2.4685123,-0.38585377,-0.10407066,0,1
1.7859942,-0.33089828,-0.6500196,0,1
1.7963043,-0.29001236,-0.7695022,0,1
1.7211573,-0.007993698,-1.3959098,0,1
1.2858787,0.18007278,-1.9230487,0,1
-0.40835544,0.20410538,-2.278638,0,1
-1.9243685,0.47481537,-1.9010477,0,1
-2.3013375,0.3528099,-1.3957883,0,1
-1.8649602,-0.40336037,-0.24797289,0,1
-1.1841846,-0.4399519,0.114540115,0,1
0.3986277,0.1919899,0.0926163,0,1
1.0974101,0.17736912,0.23548882,0,1
0.97025764,-0.28242588,0.3905772,0,1
-0.11932879,-0.21161747,0.2475999,0,1
-0.97563386,0.3575182,0.17850932,0,1
-1.3097148,0.41218948,0.1418705,0,1
-0.2564941,-0.36714745,-0.5722283,0,1
0.048664182,-0.36989307,-0.9024616,0,1
-0.08591528,0.07090473,-1.0144007,0,1
-0.4357371,0.33831596,-0.9294668,0,1
-0.8743533,0.41897964,-0.6658335,0,1
-0.45065472,0.060317993,-0.045232356,0,1
-0.29064685,-0.34797,-0.024079572,0,1
-0.24550128,-0.517272,-0.78688586,0,1
-0.42124426,-0.111517906,-1.1598701,0,1
-0.6865073,0.38168716,-1.1664482,0,1
-0.5496336,-0.004606247,-1.0345191,0,1
-0.24795574,-0.09769726,-1.0121801,0,1
0.4157863,-0.17021275,-0.99159336,0,1
0.49565434,-0.26364136,-1.0628408,0,1
-0.122713014,0.2514372,-1.3117952,0,1
-0.99743724,0.65407276,-0.7918159,0,1
-1.2805827,0.29858398,-0.28250134,0,1
-1.2744254,-0.31661224,0.39743567,0,1
-0.7418777,-0.65720177,0.17105535,0,1
0.25760603,-0.6835699,-1.0338845,0,1
-0.9033392,-0.57263947,-1.1647273,0,1
-1.5386728,-1.1530952,-0.49000698,0,1
-0.9459026,-1.9876523,0.18881735,0,1
-0.17560844,-2.642645,0.08649639,0,1
0.05790265,-3.7890024,0.4031183,0,1
-0.048218567,-3.2075377,0.3175777,0,1
-0.046498023,-2.4182568,0.15886411,0,1
-0.4664383,-1.1082554,-0.003214404,0,1
-0.55308795,-1.083066,-0.372024,0,1
0.49820387,-1.1928558,-0.83351475,1,0
0.88942003,-0.06509876,-1.1827362,1,0
0.64077073,0.21529102,-1.3681586,1,0
0.15756723,0.2445364,-1.3767334,1,0
-0.1344011,0.5193672,-1.1135958,1,0
-0.6267601,1.0166769,-0.8591723,1,0
-0.39976612,-0.7415409,-1.3162702,1,0
0.058183283,-1.6906071,-1.4131922,1,0
0.52348423,-1.7754736,-1.3745854,1,0
0.61958843,-1.6196718,-1.1821746,1,0
1.5821855,-2.3097296,-0.8231774,1,0
2.20965,-1.9771152,-1.214222,1,0
1.3087933,-1.7080832,-1.2399294,1,0
-0.362582,-1.617712,-0.2251556,1,0
0.3668848,-1.165842,0.03287333,1,0
1.2902186,-0.16422653,-0.52975035,1,0
0.74680597,1.1233034,-0.16478011,1,0
0.6172732,3.0843058,-0.19461963,1,0
-1.3844142,9.902543,-0.92962545,1,0
-3.334225,13.262427,-0.44499838,1,0
-3.2032313,16.270237,-0.57018256,1,0
2.325896,10.76847,-0.17381634,1,0
3.4130547,5.4483194,0.45712742,1,0
0.6132693,-3.0690408,-0.049349993,1,0
0.100005165,-5.6058187,-0.073389694,1,0
1.5541791,-7.649088,0.9480647,1,0
0.54294264,-7.4985123,0.8177101,1,0
-0.02182971,-7.046562,0.81915087,1,0
-0.6200218,-5.0548077,0.97705495,1,0
-1.2551742,-3.25737,0.90743333,1,0
-0.37571418,1.0084572,2.444036,1,0
0.3542589,6.588441,4.1690555,1,0
0.21444915,8.633286,3.7230563,1,0
0.5705922,7.47853,2.753095,1,0
1.2928926,4.514209,2.5464816,1,0
1.5250412,-0.84997654,2.8941853,1,0
-0.083560005,-3.3992033,1.5150402,1,0
-1.2396605,-5.020607,0.29903293,1,0
-2.6160512,-5.428404,1.0141836,1,0
-2.4253497,-4.5080423,1.6168237,1,0
-2.6547985,-2.0988798,0.64877737,1,0
-2.8875897,1.5319519,0.284867,1,0
-2.3560524,3.1033077,0.7591397,1,0
-1.067785,4.458494,0.6429315,1,0
-0.5760857,4.0342703,0.2549015,1,0
-0.54875696,1.4687357,-0.26505607,1,0
-0.49195343,-1.0148592,-0.5382769,1,0
-0.47812173,-1.9047971,-0.590939,1,0
-1.1610612,-2.8381386,-0.7001697,1,0
-1.4509078,-2.6447115,-0.75881505,1,0
-1.3745366,-1.3376942,-0.5316146,1,0
-0.91354406,0.54601383,-0.35650533,1,0
-0.7242755,1.0760355,-0.41733414,1,0
-0.005741384,1.2588148,-0.39439514,1,0
0.25410205,1.0609751,-0.39708617,1,0
0.14967977,0.51679134,-0.41117808,1,0
0.13474767,-0.050032616,-0.25912386,1,0
0.126534,-0.3394766,-0.20210972,1,0
-0.07635311,-0.8554201,-0.12609239,1,0
-0.062473107,-0.795269,-0.14173318,1,0
-0.1049541,-0.2490015,-0.21826088,1,0
-0.040613707,0.05713749,-0.03327382,1,0
0.17726792,0.23920727,0.06370209,1,0
0.28908265,0.4114809,0.12581056,1,0
0.29227498,0.4481287,0.17259046,0,1
0.43586245,0.35342693,0.2342357,0,1
0.1878757,0.08963013,-0.036123835,0,1
0.15175731,0.12138653,0.005657721,0,1
0.22627774,0.023226738,0.2931223,0,1
0.13451222,-0.049384117,0.3212215,0,1
-0.12611738,-0.38138103,-0.07478917,0,1
-0.12555936,-0.4730749,-0.4596323,0,1
-0.038845215,-0.2664051,-0.43766952,0,1
0.06508466,-0.19247818,-0.67268676,0,1
0.083570525,-0.18592358,-0.81379855,0,1
0.23126748,0.25457096,-0.56464845,0,1
0.45047215,0.32944202,-0.27841723,0,1
0.5389892,0.19848919,-0.2767949,0,1
0.48448294,-0.058377266,-0.44270572,0,1
0.3805392,-0.021448135,-0.45971447,0,1
0.26048318,0.23538399,-0.35408053,0,1
0.37190336,-0.08653641,-0.62110466,0,1
0.29436743,-0.2603054,-0.7460886,0,1
0.0323892,-0.1043272,-0.5667204,0,1
0.15958889,0.006554604,-0.4412647,0,1
0.46161097,-0.1970005,-0.38808656,0,1
0.24983725,-0.12103939,-0.25266117,0,1
0.22864972,0.05143833,-0.1659295,0,1
0.5456721,0.17246056,-0.287596,0,1
0.61535615,0.068787575,-0.37537032,0,1
0.38043833,0.07786274,-0.26867262,0,1
0.20120586,0.2910576,-0.09719795,0,1
0.1604184,0.300601,-0.05873768,0,1
0.08694289,0.2233963,0.01515427,0,1
0.05576066,0.14780617,0.041700326,0,1
0.091219686,-0.14135075,-0.08715996,0,1
0.1367011,-0.22134972,-0.1543359,0,1
0.1532274,-0.16743469,-0.11900291,0,1
0.23190112,-0.11487961,-0.12550637,0,1
0.23322031,-0.10795498,-0.19423619,0,1
0.065597,0.063010216,-0.2688519,0,1
-0.010289704,0.14450932,-0.21468033,0,1
0.04714133,0.10292721,-0.17072271,0,1
-0.001371898,0.1068964,-0.10291104,0,1
-0.08491054,0.08466911,-0.064075634,0,1
-0.15507041,-0.10434818,-0.073220626,0,1
-0.10874532,-0.059576035,-0.04193688,0,1
-0.08925298,-0.03369999,0.000402234,0,1
-0.041181747,-0.041168213,0.01800409,0,1
0.034164395,-0.047789574,0.000748915,0,1
0.18469234,-0.027712822,0.000514481,0,1
0.08813671,0.05501747,0.004176896,0,1
0.027549723,0.001011848,-0.006276315,0,1
-0.044965666,-0.08450985,0.012200547,0,1
-0.08897108,-0.07450676,0.036048908,0,1
-0.04871682,-0.043725967,0.011218509,0,1
0.1308133,0.014494896,-0.09077389,0,1
0.18812309,0.072683334,-0.09222358,0,1
0.19482908,0.04196453,-0.104835786,0,1
0.12235517,0.098555565,-0.102147005,0,1
-0.033435922,0.26917934,-0.033780765,0,1
-0.0103216,0.12515163,-0.031022076,0,1
0.007248839,0.09233761,0.017602036,0,1
-0.006457088,-0.07253361,0.07588764,0,1
-0.02008284,-0.1592083,0.08731886,0,1
-0.10374313,-0.15570736,0.15904593,0,1
-0.06876066,-0.006648064,0.37806582,0,1
-0.08893685,0.09972763,0.53684205,0,1
-0.11326065,0.34934616,0.76751757,0,1
-0.06335625,0.30065346,0.7388147,0,1
-0.20961443,0.2892189,0.851535,0,1
-0.19031136,0.45489502,1.2648257,0,1
-0.31204015,0.36090755,1.3545706,0,1
-0.51147765,0.22816277,1.3465712,0,1
-0.43073857,-0.031200409,1.1435045,0,1
-0.48054025,-0.3164711,0.65469235,0,1
-0.26791507,-0.29343414,0.66876346,0,1
-0.070971906,-0.51431656,0.57328707,0,1
-0.27283978,-0.7555256,0.24279791,0,1
-0.47148234,-0.7174654,0.18082316,0,1
-0.57001054,-0.55497074,0.11938551,0,1
-0.5338272,-0.27361393,-0.085520685,0,1
-0.43019482,-0.008419037,-0.18202776,0,1
-0.20522249,0.26168728,-0.48545995,0,1
-0.16421631,0.21232128,-0.7036648,0,1
-0.0561232,0.043694496,-0.8982338,0,1
0.27928975,-0.17547703,-0.6674611,0,1
0.6180756,-0.35019588,-0.33557275,0,1
1.0816638,-0.534853,0.19001102,0,1
0.9669543,-0.39090252,0.4258576,0,1
0.8399264,0.3653803,0.70379454,0,1
0.53138053,0.6655493,0.6951762,0,1
0.27509558,0.74278927,0.36245826,0,1
0.54427034,0.9322462,0.09869553,0,1
0.80138004,0.738719,0.48163992,0,1
0.74866194,0.7482128,0.7864786,0,1
0.22919217,0.95457554,0.30598116,0,1
-0.06488855,0.6702242,0.3397879,0,1
-0.7970711,0.3384409,0.37913013,0,1
-0.50864995,0.70362186,-0.22764854,0,1
-0.8297201,1.2801752,-1.5151951,0,1
-1.2215812,0.4295807,-1.3695483,0,1
-0.8102077,-0.45834255,-0.9934908,0,1
-0.21542437,-1.3937664,-0.44210643,0,1
0.2347438,-1.3500853,-0.5863373,0,1
1.0929581,-1.563201,-0.48146683,0,1
0.4759501,-0.9247942,-0.19533738,0,1
0.24770172,-0.60364246,-0.18298155,0,1
0.1447222,-0.4542408,0.72954684,0,1
0.024938986,0.37266064,1.2117887,0,1
1.27333,2.607216,0.51601005,0,1
0.6672591,2.9136286,0.47211176,0,1
0.24150673,3.0505323,0.92078775,0,1
-0.356672,3.661769,0.34121236,0,1
-0.32227236,3.722271,-0.2993056,0,1
-0.062237468,3.705964,-0.45306423,0,1
-0.097599685,3.3812056,-0.47977272,0,1
-0.2482149,3.0415783,-0.5253098,0,1
-0.34981853,2.483121,-0.5212685,0,1
-0.16424465,1.9447765,-0.5999126,0,1
-0.20516396,0.36021805,-0.7910139,0,1
-0.5895174,-0.34389496,-0.06306272,0,1
-0.44325846,-0.42811584,0.48058882,0,1
-0.23930967,-1.0073099,1.0376899,0,1
-0.39150742,-1.4137125,1.2542112,0,1
-0.5220814,-1.5008526,1.5852287,0,1
-0.55917245,-1.3714161,1.5942951,0,1
-0.5009538,-1.4121332,1.5046036,0,1
-0.3761708,-1.2618933,1.317156,0,1
-0.3547152,-1.1132822,0.9712603,0,1
-0.2976572,-1.0407152,0.17776388,0,1
0.029442742,-1.4175892,-0.31984395,0,1
0.04658513,-1.8499513,-0.40359417,0,1
-0.2728159,-2.398415,-0.47719684,0,1
-0.2015138,-2.421008,-0.35333335,0,1
0.6259361,-1.6525812,0.15731968,0,1
1.1281384,-0.5035372,0.15614845,0,1
1.0087107,-0.5045185,-0.24323311,0,1
0.34379348,-1.0658283,-0.43774706,0,1
0.34113106,-1.0782709,-0.113816835,0,1
1.3252286,-1.2358084,0.622883,0,1
1.5966077,-1.6850395,0.42045987,0,1
1.4773412,-1.4208288,-0.07441764,0,1
0.86893857,-0.22330952,-0.98469496,0,1
0.6896417,0.3915987,-1.1077762,0,1
0.51520026,0.8515997,-1.0556381,0,1
-0.25647762,0.33307648,-1.1615174,0,1
-0.54923654,0.25118542,-0.96577686,0,1
-0.9074402,0.13251972,-0.4603023,0,1
-1.1454188,-0.14825821,-0.40568352,0,1
-0.90788084,-0.64812374,-0.4227983,0,1
-0.82769936,-0.70855236,-0.84968895,0,1
-0.9549127,-0.26572227,-0.84090346,0,1
-1.3327336,0.32601452,-0.56272924,0,1
-1.4381907,-0.21710777,-0.46174765,0,1
-1.109895,-1.5243149,-0.29809642,0,1
-1.0890685,-2.0449147,-0.7903898,0,1
-1.1789114,-1.8451977,-1.0150402,0,1
-0.11392996,0.8657093,-0.70826876,0,1
0.8543418,2.5538387,0.052406684,0,1
1.1330894,2.026227,0.12815097,0,1
-0.18640222,-1.110137,-0.9553946,0,1
-0.41527992,-1.2645674,-0.5599304,0,1
-0.004601941,0.37872982,1.170248,0,1
-0.031529665,0.5547924,1.4927614,0,1
-0.3548007,-0.088311195,0.9825182,0,1
-0.2045207,-0.10458088,0.15053707,0,1
-0.10917813,0.07460117,-0.036923878,0,1
-0.11407264,0.09040451,0.03319049,0,1
-0.0691301,0.03178215,0.12801409,0,1
0.07976088,0.037204742,0.006471147,0,1
0.04674161,0.035377502,-0.21473952,0,1
0.019117177,-0.008886337,-0.1915781,0,1
0.001624652,-0.023342133,0.05797961,0,1
-0.017172193,0.022245407,0.20040481,0,1
-0.10371959,0.024489403,0.22556746,0,1
-0.111936264,-0.021784782,-0.06895902,0,1
-0.08388289,0.02750206,-0.13585941,0,1
-0.06139345,0.08394146,0.061499134,0,1
-0.042975783,0.05399418,0.19241911,0,1
0.001255337,0.051888466,0.16037431,0,1
-0.001615225,-0.00935936,-0.01970927,0,1
-0.017605195,-0.017062187,-0.068463966,0,1
-0.009457571,0.04404068,-0.0722248,0,1
0.02323986,0.037801743,-0.05459278,0,1
0.07096395,0.028772354,0.05493074,0,1
0.06903931,0.030736923,0.11059194,0,1
0.033786833,0.027646065,0.09910666,0,1
-0.077233255,0.032147408,0.12656137,0,1
-0.06408242,0.03767109,0.1657632,0,1
0.003585013,0.043047905,0.195416,0,1
0.03268698,0.028029442,0.14256616,0,1
0.028926853,0.019268036,0.13768996,0,1
-0.006430205,0.02328682,0.154695,0,1
-0.017272573,0.039196014,0.14144975,0,1
-0.064587116,0.03672123,0.11490242,0,1
-0.12078692,0.016122818,0.17609146,0,1
-0.10803879,-0.007528305,0.14188744,0,1
0.037062746,0.016680717,0.04921127,0,1
0.08432748,0.042158127,0.06546718,0,1
0.079210624,0.001462936,0.12908381,0,1
-0.011993464,0.013331413,0.13997509,0,1
-0.07930325,0.037733078,0.123467274,0,1
-0.10898823,0.0554657,0.07074881,0,1
-0.06538472,0.001272201,0.03162594,0,1
0.07248962,-0.012363434,-0.04753186,0,1
0.11254792,0.011807442,-0.07027687,0,1
0.088060975,-0.012061119,-0.044429537,0,1
0.017542621,0.00164032,-0.010927833,0,1
-0.001044443,0.048627853,-0.020733587,0,1
-0.021226363,0.08528614,0.001180229,0,1
-0.01808683,0.03562069,-0.023055606,0,1
0.003911445,0.05308342,-0.018487893,0,1
0.007701952,0.0471735,-0.001567366,0,1
0.006597361,0.002346993,0.003503462,0,1
0.04712258,0.003189087,-0.007243673,0,1
0.06961888,0.023812294,-0.011445448,0,1
0.06742525,-0.01716423,-0.016706966,0,1
0.06559324,-0.082793236,-0.054322246,0,1
0.0752762,-0.07226086,-0.06215976,0,1
0.11267796,-0.008690834,-0.07068427,0,1
0.18088947,0.043582916,-0.11326867,0,1
0.22796239,0.060364723,-0.14254017,0,1
0.31617445,0.094163895,-0.08545834,0,1
0.3144252,0.10801029,0.027250044,0,1
0.31744945,0.15513897,0.19712853,0,1
0.34020013,0.1337862,0.039704274,0,1
0.34147418,-0.012361527,-0.26291376,0,1
0.5281883,-0.5810118,-1.2657055,0,1
0.6028706,-0.87715244,-1.5669962,0,1
0.0430229,-1.1866484,-1.1905199,0,1
-0.8485431,-0.028988838,0.25113028,0,1
-0.9251356,0.9317436,0.78658617,0,1
-1.207379,1.2458773,1.1573697,0,1
-1.2615893,0.7990408,1.145906,0,1
-1.0077692,0.41876793,0.7165514,0,1
-0.8319897,0.13381004,0.30990264,0,1
-1.0376567,-0.22519207,0.14637968,0,1
-1.8091602,-0.9451361,0.13301167,0,1
-2.0639796,-1.1191072,0.18132856,0,1
-1.9041321,-0.9504442,-0.1514706,0,1
-1.7302095,0.35285473,-0.15709315,0,1
-2.0015974,0.9418659,0.06389333,0,1
-2.8745854,1.1505442,-0.18834588,0,1
-3.0235956,1.2177057,-0.50498307,0,1
-2.062862,0.5772867,-1.1885551,0,1
-1.5987401,-0.7453375,-2.4174428,0,1
-1.1833024,-1.1125603,-2.395749,0,1
0.66665274,-3.3257756,-1.8200568,0,1
1.2155495,-5.207161,-1.1553098,0,1
1.4546199,-7.9854116,0.60918474,0,1
4.2633295,-3.9051437,1.314795,0,1
6.1138153,1.5194254,1.680457,0,1
4.981173,7.451007,1.49729,0,1
2.1510704,5.917466,0.342844,0,1
-4.1290956,6.0048943,-2.5684745,0,1
-6.879784,9.657311,-4.6957903,0,1
-7.329333,9.082604,-5.8869863,0,1
-6.019096,5.762306,-6.11037,0,1
-4.4789915,4.36689,-4.328672,0,1
-0.457265,1.8250313,-0.809414,0,1
4.837041,-6.2323055,0.6996602,0,1
5.196502,-10.323721,1.2224697,0,1
2.5085616,-12.212452,1.8143294,0,1
1.23015,-11.235533,2.777391,0,1
0.62678933,-10.215416,3.1869962,0,1
3.8358886,-7.748986,1.5468243,0,1
4.407076,-4.1601887,-0.09032613,0,1
1.3757924,8.738975,-2.3632162,0,1
-0.87770295,16.101974,-2.842962,0,1
-1.0839237,17.662018,-4.0855174,0,1
-2.1576579,12.313653,-5.7725015,0,1
-1.7434455,9.480321,-6.442129,0,1
2.6338844,-0.6448202,-3.7954304,0,1
4.151578,-6.928055,-1.4871683,0,1
2.7542272,-11.970625,1.9016409,0,1
1.8131611,-10.333886,3.5083869,0,1
2.2735984,-9.882441,3.7921314,0,1
2.3397174,-8.699578,4.9102464,0,1
1.2731526,-7.467727,4.84866,0,1
0.23673095,-4.5463777,2.965125,0,1
0.8651778,6.997695,1.4362142,0,1
0.9078698,13.521102,-0.7694165,0,1
3.5589278,11.7695,-5.852109,0,1
4.3128085,9.185555,-7.2946777,0,1
2.3860698,8.213109,-7.841119,0,1
2.104537,4.4288654,-5.3079977,0,1
2.0285516,2.033823,-3.2445667,0,1
1.1370722,-3.8731942,-0.5173471,0,1
0.7736318,-6.828105,1.0666635,0,1
0.51850563,-10.396346,3.2150326,0,1
-0.96723104,-10.8640585,2.6013017,0,1
-1.7074046,-10.570843,2.6644557,0,1
-0.38240707,-8.225227,3.6175208,0,1
1.8926052,-5.4668784,4.52612,0,1
4.056923,3.1818495,4.2661033,0,1
0.94588846,16.510822,0.10191496,0,1
0.76861024,17.646,-1.5103016,0,1
1.7157686,12.046184,-2.8712583,0,1
2.6228776,10.4781885,-2.9082794,0,1
3.7546995,3.8175955,-0.9470805,0,1
3.0473187,-5.07528,0.36589977,0,1
3.3244772,-7.7824507,-0.7248416,0,1
1.7002707,-11.92134,-0.3908227,0,1
0.40849316,-11.074188,0.756391,0,1
-0.9855418,-9.928473,4.000811,0,1
-3.52771,-7.9076786,4.6004176,0,1
-2.8870664,-5.655641,3.1304,0,1
-1.2996007,4.7688913,3.5840137,0,1
-3.3551214,13.196918,2.442822,0,1
0.18315677,12.650659,-0.7528129,0,1
7.675305,6.2233305,2.372682,0,1
6.491968,7.2970724,1.455843,0,1
3.4145079,4.993451,-1.5676316,0,1
2.2480707,2.5091438,-1.6921158,0,1
1.301548,-2.1068773,-0.8398316,0,1
0.08312502,-7.1625943,0.9589257,0,1
-1.4356314,-9.459379,2.0114741,0,1
-2.256711,-11.102803,1.1894505,0,1
-2.1324577,-10.887766,0.19836739,0,1
-1.8264056,-9.007435,0.6255684,0,1
-3.1907535,-3.6972423,4.9852924,0,1
-3.6611123,0.9472532,5.845075,0,1
-1.8874818,15.156066,2.207274,0,1
0.39831674,17.548134,0.9983325,0,1
3.5911887,12.911965,0.2964515,0,1
4.6776094,8.926496,1.7560074,0,1
3.138509,6.245509,2.7905762,0,1
1.2959315,-2.3739781,3.0170205,0,1
1.1545848,-6.6910033,2.4173677,0,1
0.08657597,-11.179977,0.84307164,0,1
-2.5764763,-11.052815,0.3928988,0,1
-3.9127328,-10.519982,0.35923183,0,1
-4.776966,-8.411699,-0.41315615,0,1
-4.3905206,-6.3823166,-0.69184667,0,1
-3.1608377,1.1868143,-0.5589957,0,1
-0.6283341,12.880954,-1.9290947,0,1
0.6897507,13.264085,0.18236452,0,1
2.4127994,8.991105,6.999962,0,1
3.2067215,8.444325,7.71112,0,1
3.4344387,5.889494,5.471246,0,1
1.030412,2.250391,1.9192237,0,1
-0.39891624,-0.05212021,1.1927129,0,1
-2.6862497,-6.062133,0.16851668,0,1
-3.8484304,-9.060533,-1.128931,0,1
-2.3065662,-11.546158,-1.9931468,0,1
0.17056371,-10.797741,-1.6952729,0,1
-0.23905766,-9.508395,-1.5452583,0,1
-4.185183,-4.6010003,-0.86629516,0,1
-5.599398,-0.29965115,-0.6224629,0,1
-3.1440005,13.521956,-0.22445974,0,1
0.15351959,15.159896,1.4703017,0,1
0.30188945,13.1678705,1.5133646,0,1
1.5975199,9.890513,5.723742,0,1
3.7435303,5.3034525,9.609071,0,1
1.426197,-0.9354572,4.6654854,0,1
-2.7971377,-7.3353233,0.12013526,0,1
-3.3875053,-9.962863,-0.65014815,0,1
-2.4612532,-11.622006,-1.0135082,0,1
-2.1192822,-10.570366,-1.584904,0,1
-1.2632589,-8.366679,-3.3356516,0,1
-0.8443613,-4.9652233,-3.2774363,0,1
-1.2935176,-1.0293083,-3.329855,0,1
1.4224892,10.950355,-3.5197861,0,1
2.2918985,12.994121,-0.6149511,0,1
-2.085908,8.169955,5.2386985,0,1
-2.2133532,7.3172293,5.3748612,0,1
-1.1968172,6.1257067,4.156166,0,1
-0.3336965,2.364707,1.2270459,0,1
0.18601543,0.78285027,0.592641,0,1
0.6816382,-3.6236749,0.9531397,0,1
0.08846247,-8.325637,-0.54945296,0,1
0.2680584,-9.726797,-1.4804999,0,1
0.21841365,-10.778211,-2.8928826,0,1
0.09107953,-10.387658,-3.0161755,0,1
-1.381027,-6.6456165,-2.9373853,0,1
-3.214344,1.5343323,-2.4690545,0,1
-2.6037025,7.587783,-0.95704293,0,1
-1.4838681,15.434417,4.969757,0,1
-1.4204307,13.1517,9.74947,0,1
0.109651506,11.411035,7.7649612,0,1
-1.2504791,7.7366743,1.0259583,0,1
-2.1177847,2.612174,-0.5443,0,1
-2.0686772,-7.210972,-0.43232265,0,1
-1.3626763,-10.144127,0.9043441,0,1
0.32697082,-10.715918,-0.60063636,0,1
-0.6189401,-10.638842,-5.1642647,0,1
-0.5819627,-10.814435,-5.597305,0,1
-0.20500746,-7.7275248,-2.649975,0,1
-0.5392527,-5.252529,-1.5786145,0,1
1.1227835,5.3960257,-4.80063,0,1
3.899229,15.641982,-2.9380703,0,1
0.2018036,11.938262,0.56708586,0,1
-6.0420175,7.880658,4.240702,0,1
-5.544133,8.710401,4.04227,0,1
-3.0724754,5.786787,2.342054,0,1
-2.2219162,-0.27161694,2.0943635,0,1
-1.1923413,-2.1519918,0.5921319,0,1
1.7721832,-5.1334934,-3.1150832,0,1
1.9864358,-7.3507385,-3.3375752,0,1
1.1237286,-11.317698,-0.81475294,0,1
0.87042964,-10.562294,-0.2720188,0,1
1.3030044,-9.301076,-1.6049105,0,1
1.5002677,-5.3297234,-5.215567,0,1
0.98537517,-1.1098022,-5.5542173,0,1
0.8927802,12.393483,-3.2519853,0,1
0.10770725,15.178525,-1.7739426,0,1
-0.19115801,11.668111,-1.6718556,0,1
0.13089928,9.034549,-1.2819275,0,1
-2.1934881,8.8071165,-0.9891742,0,1
-2.7686534,2.3729582,-2.6909323,0,1
-0.002772272,-6.0311346,-1.4377618,0,1
1.7749239,-8.19347,-0.15895002,0,1
1.7495487,-9.275459,0.123198524,0,1
1.0056691,-10.464198,-0.44547606,0,1
2.0687823,-10.09609,-0.40082788,0,1
2.6602182,-8.032691,-0.6091362,0,1
3.1043203,-5.60107,-1.3173294,0,1
4.004455,5.8511763,-1.6933134,0,1
3.2960143,11.599347,0.001839548,0,1
-1.460036,10.685742,-0.39488238,0,1
-4.843393,8.097478,-3.7951484,0,1
-5.2476115,7.925477,-3.2640893,0,1
-3.9977024,4.817006,-1.6382339,0,1
-2.6780217,2.477706,-1.0089239,0,1
-0.73637503,-2.4505205,-0.35239217,0,1
0.854137,-6.666958,-0.8918138,0,1
1.7703271,-8.071378,-0.67123514,0,1
2.0884316,-9.809943,0.30349654,0,1
1.9398116,-10.006473,0.57503337,0,1
2.03964,-7.830043,-0.06428805,0,1
2.5738385,-2.0664644,-1.16339,0,1
2.6696131,2.4552212,-1.0669198,0,1
2.514684,12.431153,-1.1474563,0,1
2.1988366,14.36826,-1.4183154,0,1
2.616926,11.947501,-1.7655112,0,1
2.842585,9.243793,0.02842778,0,1
-0.29581133,8.132237,-0.3856053,0,1
-0.5049416,0.51621723,-2.9902492,0,1
0.5697298,-3.308826,-2.6769373,0,1
0.51661336,-8.932054,-1.2444259,0,1
0.8606396,-10.5912895,-0.7212082,0,1
1.6036366,-10.293812,-0.095088705,0,1
2.5491464,-8.766964,1.6058674,0,1
2.7265954,-7.5719337,2.0575783,0,1
3.435515,-2.8481684,2.2825258,0,1
1.5072054,8.779836,2.8253224,0,1
-0.2338742,12.507844,2.814784,0,1
0.24999139,9.087901,-2.7331014,0,1
1.1639419,7.668214,-5.1824956,0,1
-0.61678135,7.169379,-5.2946415,0,1
-0.24515073,1.9374075,-3.7513876,0,1
-0.3374301,0.18632984,-2.3859577,0,1
-1.7082825,-1.3318214,-0.83216953,0,1
-0.9215514,-3.4078245,-0.45535433,0,1
1.5146157,-8.536825,1.3841228,0,1
0.7008141,-10.573046,2.3909209,0,1
0.56287783,-10.579933,2.589033,0,1
1.2049288,-7.618963,2.7654474,0,1
2.0952425,-4.4945087,2.581332,0,1
3.3924694,5.4436407,2.00646,0,1
0.49039948,13.86239,2.123483,0,1
-0.45224926,14.858638,1.0478683,0,1
3.3340454,11.505906,3.095273,0,1
3.3901362,9.916343,6.5660977,0,1
2.0085397,6.3030157,-2.0686488,0,1
2.4710946,-2.3964057,-0.51123846,0,1
1.7369481,-6.2298727,1.0396851,0,1
0.44840991,-11.600463,0.88822675,0,1
0.5967709,-12.311937,0.7473336,0,1
0.7793293,-10.013652,2.7601385,0,1
-0.25852832,-8.26437,3.0581586,0,1
-0.26356003,-6.633026,2.3927433,0,1
0.53437316,2.6744509,3.132993,0,1
-0.81938237,10.154784,3.1225653,0,1
-1.206254,13.053489,-1.2621706,0,1
4.956439,8.394231,-4.859615,0,1
5.334179,7.305024,-4.984069,0,1
3.5480514,4.632209,-3.5031002,0,1
2.198704,2.4586325,-2.626928,0,1
0.12163456,-1.1177549,-1.3339906,0,1
-0.48603222,-6.220147,1.6027968,0,1
-0.59572196,-8.844351,2.6324713,0,1
-0.7373482,-11.6610365,2.2551599,0,1
-1.144032,-11.275203,2.1288738,0,1
-1.2570126,-7.6840243,2.5750375,0,1
0.2984388,-0.18576336,5.066559,0,1
0.572595,6.4033937,5.228855,0,1
-1.2295732,15.314952,4.7022324,0,1
0.16993152,16.448124,3.1333146,0,1
4.9866133,15.522965,-4.171348,0,1
2.3514025,7.3635397,-1.2558721,0,1
2.773422,4.369479,0.40346223,0,1
2.1391873,-3.1918483,1.4300895,0,1
1.2501711,-6.631857,1.2799225,0,1
0.44932806,-10.820416,1.4248059,0,1
-1.0125669,-10.931659,2.3796751,0,1
-2.4209058,-10.067093,2.8485348,0,1
-3.3468535,-7.896568,2.167928,0,1
-2.6189742,-6.2950325,1.8800391,0,1
-1.895136,2.6483145,2.465331,0,1
-2.7195034,13.558671,-0.776041,0,1
-1.1064544,11.826621,-0.29826027,0,1
2.8832715,7.7695017,3.4880557,0,1
3.1678426,7.7408323,2.5700984,0,1
2.9185326,5.4870033,0.53474104,0,1
1.9159728,1.0566616,0.44371003,0,1
1.4628075,-0.8725586,-0.044514224,0,1
0.8402124,-4.488585,-0.1869775,0,1
-0.16363302,-6.469364,0.12287773,0,1
-2.1694307,-10.577904,0.39117795,0,1
-1.9852796,-10.799234,0.019425943,0,1
-1.7456511,-9.364426,-0.12058306,0,1
-2.7552896,-3.6443644,1.1165749,0,1
-3.5470266,0.8919878,1.8892746,0,1
-3.2813375,12.517913,2.2961237,0,1
-0.64302623,16.209297,2.8777459,0,1
0.8476962,12.638316,3.3923974,0,1
-1.7886121,4.6695013,4.937531,0,1
-2.6170607,3.3774805,3.5533502,0,1
-0.66716194,0.25247288,2.7234921,0,1
-0.64258564,-5.116104,1.5236974,0,1
-0.6889235,-6.966458,0.98640364,0,1
-0.7982097,-8.868731,0.8281465,0,1
-1.043467,-8.99631,0.84123254,0,1
-1.6187531,-7.689407,0.46071187,0,1
-1.567394,-5.1307797,-0.04748659,0,1
-2.987728,-2.145565,-0.07948321,0,1
-5.0774436,11.121263,-4.036526,0,1
-2.9960284,12.784408,-4.95564,0,1
-2.3960059,6.2839975,0.6293181,0,1
-2.3294406,4.2043543,0.4788382,0,1
-1.8379357,3.9980965,-1.3246897,0,1
-1.6085396,0.99533653,-2.347592,0,1
-2.0539393,-1.2690563,-1.3222655,0,1
-3.6588824,-5.114961,-0.19920456,0,1
1.3711375,-4.647532,-1.1408073,0,1
2.6886208,-3.7874522,0.22145781,0,1
2.7307916,-3.1460629,2.7431436,0,1
2.034588,-3.4632869,3.4393568,0,1
1.713216,-2.3602524,4.829059,0,1
2.0224893,-0.07453537,4.7217045,0,1
1.4961407,0.29516792,4.0105133,0,1
-0.7339251,-0.27072906,2.5326772,0,1
-1.858333,0.18363857,1.7808805,0,1
-2.3005745,2.1227856,-1.0815375,0,1
-1.9526842,1.8038874,-4.5794435,0,1
-1.5533698,2.7986498,-7.2697506,0,1
-0.83313966,6.9166994,-9.562205,0,1
-0.32371628,5.772504,-7.6741567,0,1
-0.32754645,-0.34068775,-2.5688274,0,1
-0.89692044,-1.5743742,-1.2582124,0,1
-0.029684514,-0.8268347,-1.4026171,0,1
0.502007,-0.53730583,-1.4124446,0,1
-0.5549487,-1.2794647,-1.239986,0,1
-1.7979058,-2.2317367,-1.1809306,0,1
-1.0487114,-1.3343039,-0.8534039,0,1
-0.7018535,-0.71329117,-0.5114491,0,1
-0.43409014,-0.30346775,0.1062749,0,1
-0.55177647,-0.21645164,0.4504802,0,1
-0.50657016,0.17208672,1.1460823,0,1
-0.9860026,-0.34295368,1.4366219,0,1
-1.5001023,-0.880538,1.1276647,0,1
-1.6050603,-1.2927828,0.455068,0,1
-1.0064017,-0.7806921,0.3118043,0,1
0.6005997,1.3516884,-0.6147703,0,1
1.4092919,2.043376,-1.7919742,0,1
0.82564723,0.8638897,-1.8789768,0,1
-0.7856544,-1.4718399,-0.98565596,0,1
-0.84858364,-1.6861506,-0.6347388,0,1
0.32627243,-0.59716034,-1.3741783,0,1
1.376769,0.9366884,-2.6852505,0,1
1.4654629,1.0242167,-2.5763335,0,1
0.8273853,-0.10399246,-0.62015796,0,1
0.5226001,-0.5776081,0.43366134,0,1
0.42605454,-0.64091206,0.8584374,0,1
0.53337467,-0.22838593,-0.2577375,0,1
0.49432147,-0.10128784,-0.66299635,0,1
0.5317645,0.053505898,-0.41595826,0,1
0.47102988,0.089087486,-0.016359948,0,1
0.30654466,0.0986042,0.35617152,0,1
0.38929474,0.08043194,0.27975386,0,1
0.40949935,0.08668518,0.22860146,0,1
0.3194463,0.037493706,0.17561156,0,1
0.3068571,-0.027413368,0.16311605,0,1
0.4610536,-0.08282375,-0.07034215,0,1
0.35664845,-0.039927483,-0.2745652,0,1
0.32083297,-0.027108192,-0.122905456,0,1
0.4222856,0.048075676,0.21427041,0,1
0.4684231,0.09395981,0.21098478,0,1
0.31212643,0.1222868,0.12523828,0,1
-0.013134707,0.01595974,0.11128457,0,1
0.013636017,0.002951622,0.12793773,0,1
0.45003688,0.079865456,0.12978157,0,1
0.6040461,0.13551426,-0.013632409,0,1
0.3311514,0.02933979,-0.048753113,0,1
0.24095075,0.018741608,-0.014682389,0,1
0.30376735,0.07763958,-0.08418265,0,1
0.40662798,0.002202034,0.000503019,0,1
0.39904985,-0.06904125,0.07533622,0,1
0.38480464,-0.08211994,-0.08283405,0,1
0.55038285,0.03513527,-0.1053898,0,1
0.53839564,0.14033508,-0.005389068,0,1
0.25018454,0.00302887,0.58935314,0,1
0.13817033,-0.20663929,0.94358426,0,1
0.18587276,-0.15158749,0.8791867,0,1
0.23446146,0.31816483,0.39622793,0,1
-0.09842317,0.34774017,0.4729243,0,1
-0.62776166,-0.022920609,0.9119751,0,1
-0.49069524,-0.07667065,0.9537131,0,1
-0.15432972,-0.003087044,0.81876254,0,1
-0.02722615,-0.18426609,1.07833,0,1
0.04312046,-0.22831821,1.1686171,0,1
0.11684006,-0.13827801,1.1435393,0,1
0.117226146,-0.055207253,1.1176167,0,1
0.087838665,-0.06784725,1.0495325,0,1
0.09971663,-0.25030804,0.9903708,0,1
0.17160493,-0.22812462,1.0118686,0,1
0.21934153,-0.27347565,1.1456157,0,1
0.23350263,-0.34888077,1.218208,0,1
0.39848733,-0.32815456,1.3881516,0,1
0.5543839,-0.2046032,1.6170979,0,1
0.66729903,-0.07925606,1.7268112,0,1
0.6833078,0.15003872,1.9043374,0,1
0.5309106,0.2052927,2.0258365,0,1
0.2231538,0.60951996,2.293775,0,1
-0.18206641,1.2345924,1.7879355,0,1
-0.8203263,0.9371271,1.4075526,0,1
-1.0283988,1.1243505,0.09016256,0,1
-0.015834317,1.6190681,-0.701573,0,1
1.0741651,1.1446066,-2.9846144,0,1
-0.90516347,0.08217716,-3.0683665,0,1
-1.0003637,0.69173527,-2.0316985,0,1
0.23941158,1.6133652,-0.20865986,0,1
0.48456916,1.0822687,0.24926323,0,1
-0.030205667,-1.1193275,0.23698947,0,1
-0.32219043,-1.9333634,-0.11917828,0,1
-0.3548435,-1.8742089,-0.3396212,0,1
-0.8121897,-1.7787018,-0.57611334,0,1
-1.1023068,-1.8747053,-0.5426191,0,1
-1.1029527,-1.9321485,-0.054117873,0,1
-0.6827052,-1.6108723,0.99385434,0,1
-0.48831016,-1.3422203,1.4770474,0,1
-0.19847456,-0.3445282,1.7623763,0,1
-0.24565475,0.36168194,1.6357354,0,1
-0.43086854,1.624011,1.3262331,0,1
-0.6559801,2.192667,1.9129384,0,1
-0.68017185,2.0343618,2.2448595,0,1
-1.1136274,2.5453386,0.053703494,0,1
-1.191618,3.3837547,-2.4635699,0,1
-1.121103,2.0652466,-5.1293626,0,1
-1.2089539,-2.1832256,-2.5868595,0,1
-0.38101536,-2.0094404,-1.7823751,0,1
1.0564547,0.24704456,-3.1897588,0,1
0.72198987,0.44199753,-4.121645,0,1
0.13184285,-0.6357279,-3.3958542,0,1
1.1539822,-0.8505106,-0.60919774,0,1
1.7617009,-0.6193752,0.16123126,0,1
1.9230436,-0.37623405,0.28166226,0,1
1.5205703,-0.25400925,0.14183685,0,1
0.5496479,-0.011688232,0.4140649,0,1
-0.5475706,-0.8531132,1.7030035,0,1
-1.0419744,-1.3731575,2.2710912,0,1
-1.7728357,-1.725524,2.3112624,0,1
-1.8985635,-1.4480991,2.1348293,0,1
-2.2082884,-0.3096342,1.5599763,0,1
-0.22049843,0.81865597,-2.9519846,0,1
2.158213,0.5304699,-4.949856,0,1
3.1269429,2.3641624,-3.4727573,0,1
1.9722456,3.906623,-2.0109346,0,1
0.1619387,3.6110668,-0.840642,0,1
-0.13784279,-0.33686924,-1.5168453,0,1
-0.46084505,-1.7782488,-1.384845,0,1
-1.2363019,-2.2851443,-0.7998259,0,1
-1.3045113,-1.9840517,-1.1596469,0,1
-0.6508979,-1.6207743,-2.3601804,0,1
0.71993566,-1.0612631,-2.204741,0,1
1.2360735,-0.680068,-1.8186069,0,1
0.54830813,-0.010891914,-0.8786751,0,1
-0.067577995,0.40103626,-0.30216855,0,1
0.33681986,1.9008627,0.3608126,0,1
0.90760136,0.28412724,0.43338445,0,1
0.23281646,-0.6153679,0.45503837,0,1
-1.540519,0.7903013,1.1793764,0,1
-1.8060796,1.1950579,0.8746989,0,1
-0.9895188,-0.46418762,-0.6967,0,1
0.21569528,-1.296834,-0.67270255,0,1
0.7780961,-1.0947905,-0.3591615,0,1
1.8361981,-1.075799,-0.04993777,0,1
2.1241035,-0.9798002,-0.10290292,0,1
2.516813,-0.25487232,-0.46624315,0,1
1.6227522,1.1355782,-0.70404994,0,1
0.14869404,1.6468382,0.006664272,0,1
-2.1118062,2.0936708,-0.15629783,1,0
-1.7722127,1.858468,-1.3511189,1,0
0.3063084,0.9509535,-1.8485105,1,0
0.27845198,0.36542702,-0.51718134,1,0
-0.45957196,-0.32822132,-0.2906744,1,0
-0.96117634,-2.3860688,-0.9371724,1,0
-0.5026551,-2.6400342,-1.3398695,1,0
0.75534177,-1.5544939,-1.3186373,1,0
1.5322033,-1.5701761,-1.6360552,1,0
1.7569793,-1.8999643,-1.954626,1,0
1.5034068,-1.966475,-1.8539002,1,0
1.1062269,-1.9204602,-1.639576,1,0
0.22445205,-2.5916152,-1.9913682,1,0
-0.81994057,-2.2330017,-1.954328,1,0
-0.63829887,-1.1473932,-1.7081566,1,0
1.0340803,-0.37941265,-2.0765116,1,0
1.7105793,-0.99345875,-2.6275985,1,0
0.37241286,-2.4298,-2.3347182,1,0
-1.920702,-4.928269,-0.34134495,1,0
-2.1976335,-5.1771913,0.044145405,1,0
-0.4153793,-3.033759,-1.0294181,1,0
0.5981468,-1.8804417,-1.9161371,1,0
-0.084662795,-1.9107418,-2.8669019,1,0
-1.6775067,-2.9556441,-2.0568771,1,0
-2.2016382,-3.0079618,-1.5210702,1,0
-2.1357205,-3.5709739,-1.8226035,1,0
-1.7071719,-4.526733,-2.2897344,1,0
-2.0257406,-6.8626614,-3.0852447,1,0
-1.8246702,-6.696267,-0.550175,1,0
-0.45084426,-3.5464864,3.2378125,1,0
-12.471297,5.959937,10.547157,1,0
-18.890799,4.290889,12.673227,1,0
6.4857597,14.313502,13.141584,1,0
5.9556255,13.467315,0.40848166,1,0
2.5229216,7.0811377,-4.286452,1,0
-1.2945087,-3.276249,-16.739777,1,0
-3.903902,-4.47893,-19.977215,1,0
-3.5080276,-4.6783123,-1.5153167,1,0
-1.3074558,-10.760426,9.695761,1,0
-1.476413,-10.313021,7.5621557,1,0
-0.15849835,-7.706541,2.465616,1,0
-4.263512,-6.8684616,-0.00764513,1,0
-17.188902,-13.076847,-5.684826,1,0
-1.6326877,-2.8599124,-0.665529,1,0
2.315893,4.592433,0.44107452,1,0
2.080472,9.26352,0.29563123,1,0
1.1104344,7.9076967,0.7596021,1,0
-0.1938762,2.5384665,2.438939,1,0
-0.31929308,-1.4842968,3.0092657,1,0
-0.16093555,-3.1872602,2.6258447,1,0
-0.7791061,-4.6130304,2.4340708,1,0
-1.7248039,-3.6278744,3.385902,1,0
-2.0676231,-2.262144,3.6948018,1,0
-0.053030133,-1.8287654,2.9045546,1,0
1.0068188,-1.1237116,2.9409273,1,0
1.535784,1.1805696,1.9780891,1,0
1.1669648,2.127327,0.9279208,1,0
0.5537962,2.9798193,-0.05659991,1,0
0.07658585,1.3137712,-0.19826356,1,0
-0.041109692,0.1900301,-0.29654244,1,0
-0.5306204,-1.2915869,0.11737534,1,0
-0.77688,-1.5320044,0.23428813,1,0
-0.34443012,-1.2041578,0.4477614,1,0
0.088728055,-0.60762405,0.64840597,1,0
0.26456815,-0.32215786,0.7616875,1,0
0.6359988,0.91832256,0.7952711,0,1
0.57348883,1.3655024,0.63901526,0,1
0.32048106,0.8719759,0.2582109,0,1
0.023062361,1.0569391,0.004657552,0,1
-0.15744857,1.025464,0.16761522,0,1
-0.009423882,0.29344845,0.34730726,0,1
0.24650386,0.030528069,0.34204403,0,1
0.43055418,-0.54277325,0.2773021,0,1
0.32976493,-1.0910406,0.3741713,0,1
0.27076712,-1.1412115,0.41131163,0,1
0.28715506,-0.53607273,0.28631905,0,1
0.21652555,-0.20521164,0.37403056,0,1
-0.25223926,-0.17161942,0.5014837,0,1
-0.28432968,0.36631203,0.23310474,0,1
-0.22737703,0.70325184,0.2676105,0,1
-0.3080082,0.57654,0.5851228,0,1
-0.31492352,0.3235464,0.47495884,0,1
0.15631075,0.45094013,0.07352127,0,1
0.082380384,0.24807644,0.38450137,0,1
-0.17974746,-0.12348652,0.528031,0,1
-0.04072698,-0.28052425,0.49391755,0,1
0.14030668,-0.23995876,0.49111477,0,1
0.15027213,-0.36034107,0.5201652,0,1
0.1503798,-0.116900444,0.4788211,0,1
0.15986699,0.111652374,0.44337633,0,1
0.1610327,0.17746067,0.50647527,0,1
0.11592485,0.089346886,0.56177026,0,1
0.034930762,0.23100758,0.59664035,0,1
0.17886682,0.28496742,0.42455646,0,1
0.24788854,-0.023328781,0.27516592,0,1
0.3093059,-0.13723183,0.03706112,0,1
-0.046426337,0.36609173,0.39430934,0,1
-0.90420616,0.5005884,1.3587525,0,1
-0.6422376,-0.03726387,1.1243843,0,1
-0.50604534,0.2570238,0.9283745,0,1
-0.3567255,0.6071224,0.71702254,0,1
-0.11714513,0.38942432,0.59003246,0,1
0.3990973,0.16922855,-0.26635015,0,1
0.34781396,-0.18365383,-0.80898607,0,1
0.28672397,-0.34731483,-0.38848826,0,1
0.41893244,-0.14836693,0.94901,0,1
0.57126844,-0.3212042,0.9718556,0,1
0.5438507,-0.5437517,-0.10314179,0,1
0.32836664,-0.22595978,-0.40892848,0,1
0.1817467,-0.16114998,-0.2731948,0,1
0.002436353,-0.2525587,0.016032752,0,1
0.025479063,-0.3514347,0.07403808,0,1
0.15636353,-0.5053873,-0.001347246,0,1
0.1819096,-0.39716434,-0.05623219,0,1
0.056934938,-0.32238197,0.050673448,0,1
-0.26075992,-0.2871294,0.21239433,0,1
-0.17047329,-0.1606102,0.24047418,0,1
0.23380333,0.07743263,0.15286905,0,1
0.3214278,-0.21525574,-0.06994793,0,1
0.33965895,-0.21914673,-0.027038883,0,1
0.1574149,-0.10059929,0.39622957,0,1
-0.07129175,-0.21259212,0.49843004,0,1
0.006072629,-0.21457577,0.5082816,0,1
0.46231705,0.16719627,0.46759284,0,1
0.35935393,0.07693386,0.52381885,0,1
0.31274801,0.093853,0.59141636,0,1
0.3499781,0.09265232,0.41062063,0,1
-0.18161774,-0.6981735,0.10491507,0,1
-0.3600309,-0.57101536,-0.19826022,0,1
-0.49118304,-0.29150486,-0.4821119,0,1
-0.87252045,-0.39769554,-0.60226756,0,1
-0.8007499,-0.4440794,-0.67140436,0,1
-0.7031243,-0.068416595,-0.5301202,0,1
-0.8443201,0.009347916,0.09274133,0,1
-0.56738365,0.15221405,0.19059372,0,1
0.25039417,0.3362627,0.24875359,0,1
0.47573447,0.022816658,0.4428169,0,1
0.39900634,-0.10447025,0.6919716,0,1
0.48007548,-0.1809206,0.66712177,0,1
0.46434426,-0.23579025,0.5928466,0,1
0.10984737,0.08764744,0.46483088,0,1
0.11210947,0.17569542,0.4484833,0,1
0.12581651,0.13100529,0.6846137,0,1
-0.28939846,0.6258116,0.5212333,0,1
-0.38391766,0.785614,0.42717198,0,1
-0.10867021,0.57050514,0.3035361,0,1
-0.008854657,0.5112543,0.2847216,0,1
0.07144432,0.31395435,0.35979754,0,1
-0.1864286,0.34223175,0.5225753,0,1
-0.1659089,0.39044762,0.38175565,0,1
0.021904832,-0.023818016,-0.05602289,0,1
-0.001712047,-0.021733284,-0.19482881,0,1
0.2346845,0.4249878,0.4528272,0,1
0.020096026,0.12702274,1.0642079,0,1
0.1565963,0.4267149,0.8815147,0,1
0.21963163,0.3909464,0.40744922,0,1
-0.049295835,0.024897575,0.248691,0,1
-0.14187133,-0.12783146,0.19253543,0,1
-0.038633123,0.07096958,0.17291868,0,1
-0.17832609,0.13289356,0.2955216,0,1
-0.07193216,-0.05169201,0.14240652,0,1
0.5722523,-0.1900034,-0.01908648,0,1
0.5017557,0.17731571,0.35648492,0,1
-0.8508043,0.5003605,0.84463453,0,1
-1.0908955,0.34723473,0.54442716,0,1
-0.68007094,-0.4545784,-0.6051202,0,1
0.10203578,-0.42918682,-0.7997419,0,1
0.6787568,-0.010831833,-0.33600837,0,1
-0.29980123,0.21664429,0.25367475,0,1
-0.61315,0.16106892,0.2175695,0,1
-0.62885725,-0.4861908,0.08977898,0,1
-0.36397135,-0.78902245,0.075616,0,1
0.7761422,-0.29770756,-0.08610069,0,1
0.54209626,0.21500492,-0.20382425,0,1
0.04255679,0.06671429,-0.0739191,0,1
-0.37571144,0.2751398,-0.07859589,0,1
-0.23335901,0.46699142,-0.17397451,0,1
0.040114723,0.25508308,-0.04301732,0,1
0.14179611,0.123521805,0.024832442,0,1
0.4505354,0.08446789,0.013272516,0,1
0.5938326,0.06520748,0.6574934,0,1
-0.074425064,0.060321808,0.9361193,0,1
-0.70989275,0.047641754,0.74330777,0,1
-0.24537417,-0.08789921,0.09183556,0,1
0.011658874,-0.12135601,-0.018398264,0,1
-0.030796811,0.1532898,0.03672985,0,1
-0.083927915,0.20116234,0.02167319,0,1
0.28328612,0.082139015,-0.03372944,0,1
0.35513747,0.034970284,0.1889914,0,1
0.10263912,0.00803566,0.22183377,0,1
-0.47527534,-0.1289072,0.20659183,0,1
-0.6630359,-0.32503605,0.25122586,0,1
-0.32767093,-0.8311548,0.26234376,0,1
0.16284989,-0.27893543,0.2831798,0,1
-0.21941878,0.26889896,0.2571658,0,1
-0.30046704,0.6379423,-0.097605556,0,1
-0.066987395,0.6415844,-0.27649033,0,1
0.52945685,0.52582264,-0.29522425,0,1
0.64872205,0.31070423,-0.2569265,0,1
0.21484654,0.06934929,-0.28208485,0,1
-0.43806332,-0.23658943,-0.16741547,0,1
-0.34866995,-0.27650166,0.004817992,0,1
-0.05012555,-0.2636776,0.3835471,0,1
-0.2302592,-0.25332546,0.36882696,0,1
-0.21655719,-0.04157448,0.19687672,0,1
-0.044752855,0.2706194,0.018284295,0,1
-0.031439997,0.27901363,0.058679618,0,1
-0.048902504,0.104865074,0.19928764,0,1
0.2829973,-0.09371662,0.08246909,0,1
0.31304818,-0.12862301,0.0774823,0,1
0.08938567,-0.15055943,0.095874235,0,1
-0.01459553,-0.08507061,0.1108615,0,1
-0.22561704,0.17046452,0.18403117,0,1
-0.30046806,0.13058758,0.16703975,0,1
-0.2200489,0.10710049,0.13239503,0,1
0.023133324,0.13513565,0.10537737,0,1
0.091262616,0.12190819,0.1181986,0,1
0.12316543,0.08269787,0.08579582,0,1
0.011311507,0.1717081,-0.003487653,0,1
-0.109129414,0.18470478,0.003613791,0,1
-0.18052204,0.24880886,0.028702999,0,1
-0.133718,0.36852646,0.009225722,0,1
-0.057736393,0.4119892,0.1422264,0,1
-0.005538587,0.3819828,0.41178524,0,1
0.056995288,0.50544167,0.44644645,0,1
0.17083138,0.17448997,0.609393,0,1
0.2570328,-0.14373016,0.7311999,0,1
0.40224835,-0.16772747,0.85304713,0,1
0.19737369,0.17320538,1.2371204,0,1
0.2006707,0.21996403,1.262008,0,1
0.4148139,0.34763718,0.79376936,0,1
0.49481776,0.4233055,0.5721186,0,1
0.43841666,0.19159985,0.41269997,0,1
0.031838104,0.12941074,0.18851712,0,1
-0.16088703,0.2359047,0.13799554,0,1
-0.23246825,0.004502296,0.11574375,0,1
-0.2272113,0.05953026,-0.058590285,0,1
0.12631495,0.6019325,-0.27861708,0,1
-0.16411449,0.18251896,0.010100499,0,1
-0.49947378,0.045454025,0.05241069,0,1
-0.6743658,0.318058,-0.13280052,0,1
-0.62771726,0.32324123,-0.2134727,0,1
-0.56406784,-0.31677818,-0.16863212,0,1
-0.5295787,-0.3930683,-0.10387522,0,1
-0.3928467,-0.18810177,-0.14172369,0,1
-0.035287805,-0.3389473,-0.068135075,0,1
0.004355921,-0.46387482,-0.113514,0,1
-0.65786177,0.19793415,0.15976551,0,1
-1.0114837,0.09503555,0.52660865,0,1
-0.97085536,-0.13631725,0.64508915,0,1
-0.92664355,0.7734604,0.6281757,0,1
-0.9688385,1.1222429,0.33235133,0,1
-0.8984854,1.6579466,0.7614443,0,1
-0.047425434,1.2275219,1.3873359,0,1
0.28159475,0.66844463,1.3767679,0,1
0.594308,0.40962696,1.0621511,0,1
0.66934925,0.25299835,0.8856954,0,1
0.3894312,-0.39775276,0.43145382,0,1
-0.07104412,-0.90385437,0.49822733,0,1
-0.28631562,-1.1073494,0.35767365,0,1
0.065969735,-1.1472292,-0.36717996,0,1
0.33842486,-0.8991165,-0.45580715,0,1
0.8674217,-0.09314251,-0.04714343,0,1
1.0635297,0.80622387,-0.24459052,0,1
0.8072978,0.94124985,-0.1804954,0,1
-0.026933456,0.3299389,0.029035639,0,1
-0.3829452,0.2508917,-0.0098559,0,1
-1.0268031,0.53992844,0.40964922,0,1
-1.0318052,-0.14203835,0.17438577,0,1
-0.7596561,-0.5021343,-0.41204247,0,1
-0.167759,-0.41356373,-1.0813954,0,1
-0.04642249,-0.33248043,-0.9323806,0,1
0.020300329,-0.393775,-0.31721684,0,1
0.49808246,0.4440832,-0.22648665,0,1
0.76393366,1.0197048,-0.24425173,0,1
0.54989123,1.0699501,-0.10610367,0,1
0.0229588,0.58791065,0.09208073,0,1
-0.92779255,-0.16802979,0.6979283,0,1
-1.0887773,-0.20369244,1.2578522,0,1
-0.99568003,-0.019918442,1.4006244,0,1
-0.65458405,0.042834282,1.2127359,0,1
-0.5220059,0.001461029,1.2031078,0,1
-0.27144033,0.22801208,1.1389179,0,1
-0.4301769,0.25756264,0.8427955,0,1
-0.6757137,0.3354931,0.96229994,0,1
-0.91722953,0.8363981,1.1486677,0,1
-0.8140557,1.119441,0.93723243,0,1
-0.31617054,2.1535482,0.263479,0,1
0.8226944,3.156726,-1.2819678,0,1
1.242604,3.0834446,-1.9664029,0,1
1.2553136,1.6871967,-1.9925963,0,1
0.82479763,0.94095707,-1.7956617,0,1
0.10224883,0.22746277,-1.2721808,0,1
1.1275282,0.07112789,-1.2692602,0,1
1.1872553,-0.26064682,-1.5258385,0,1
0.54046154,-1.2112064,-1.6499226,0,1
0.53691506,-1.2214575,-1.4972098,0,1
0.749818,-0.51283455,-1.2107927,0,1
0.3838962,-0.77948,-0.7533768,0,1
0.32929647,-0.91098976,-0.2808191,0,1
0.3757768,-0.3145666,0.2792377,0,1
0.27171758,-0.20623875,0.14709164,0,1
-0.12586875,-0.43090916,-0.000554665,0,1
-0.66333187,0.27365112,0.9143721,0,1
-1.0074583,0.68594646,1.2622899,0,1
-1.6543415,0.9624119,1.8501344,0,1
-1.9020551,0.9265585,1.9528546,0,1
-2.108839,0.41751003,1.3092079,0,1
-1.915003,-0.83091164,0.07611005,0,1
-1.669268,-1.5488605,-0.2612998,0,1
-1.0636324,-2.7387662,-0.1511209,0,1
-0.7728823,-3.3025455,-0.10952721,0,1
-0.47235385,-4.215909,-0.36322194,0,1
-1.5766528,-4.2459702,-0.82082546,0,1
-2.3618655,-4.1896825,-0.62956476,0,1
-2.9828353,-2.9517436,1.0063746,0,1
-2.3112526,-2.1129413,1.7915004,0,1
-1.0857749,-0.05294609,1.9715124,0,1
0.020521045,1.9502687,-0.5311707,0,1
0.880828,2.4100733,-2.6933682,0,1
3.270584,2.6815577,-6.5161586,0,1
4.978349,2.263955,-6.864502,0,1
4.8522296,1.4006786,-2.1062777,0,1
1.08279,1.5647135,3.5290215,0,1
-0.2451075,0.83496284,4.0266294,0,1
0.25020146,-0.43430805,2.1927216,0,1
1.235251,-0.53084373,0.7845548,0,1
2.2236362,-0.956089,-1.552915,0,1
1.8998786,-1.2854414,-1.5141904,0,1
1.6675873,-0.91246605,-0.87437135,0,1
1.2843101,0.1377573,0.12806526,0,1
1.2052331,0.21338272,0.43723786,0,1
1.1244864,-0.30242062,0.46708792,0,1
1.4120349,-0.11005783,0.2982943,0,1
1.7920153,0.4858942,0.3260159,0,1
1.694769,0.59308434,0.3109468,0,1
1.0966859,-0.25572968,0.5028834,0,1
0.07497686,-0.6032114,1.9992808,0,1
0.31019515,-0.1643858,2.1020784,0,1
0.7163284,-0.14502811,1.6137124,0,1
1.4731128,-0.18920803,0.5885921,0,1
1.2981644,-0.30887794,0.18418305,0,1
0.7258825,-0.4904251,-0.36374646,0,1
0.50250304,-1.0540972,-0.49690396,0,1
0.44901896,-1.3476772,-0.42686412,0,1
0.5169448,-0.93230915,-0.51573855,0,1
0.4651702,-0.5010834,-0.8911443,0,1
-0.93941545,0.23656654,-1.8673068,0,1
-3.0806823,1.6085958,-0.8918168,0,1
-3.605629,2.1891766,-0.01891607,0,1
-3.2878685,3.439001,0.120274425,0,1
-2.7522311,3.3818827,-0.41711518,0,1
-1.0277438,3.0075188,-1.5918489,0,1
-0.44386023,1.0162172,-2.137282,0,1
-0.57622594,-0.049132347,-2.0101457,0,1
-0.9222044,-1.9307299,-1.5145531,0,1
-1.0554879,-2.6255732,-1.3763252,0,1
-1.3900307,-2.8210096,-0.94158196,0,1
-1.2324052,-1.4942188,-0.44707203,0,1
-0.9852072,-0.5911417,-0.30090627,0,1
-0.45938998,0.8019972,-0.25504634,0,1
-0.14030468,1.1119757,-0.39514887,0,1
-0.2693557,1.2912197,-0.47339365,0,1
-1.0013424,0.20297718,-0.6165147,0,1
-1.3289235,-0.43512154,-0.7478105,0,1
-1.6842883,-0.58624744,-0.4493507,0,1
-1.5541946,-0.22996807,-0.16558307,0,1
-1.0998762,0.27202034,0.10024856,0,1
-0.7280281,0.10577297,-0.09345079,0,1
-0.61727315,-0.08410549,-0.21693742,0,1
-0.736456,-0.44343853,-0.29516906,0,1
-1.0308313,-0.49574757,-0.22206911,0,1
-2.1054757,-0.41261482,-0.036481917,0,1
-2.22655,-0.36373806,-0.18021706,0,1
-1.9728307,-0.31317902,-0.36404043,0,1
-1.2605633,-0.39477158,-0.7080799,0,1
-0.9615655,-0.50670147,-0.8405759,0,1
-0.73321813,-0.4452448,-1.1340613,0,1
-1.027166,-0.30148888,-1.1843011,0,1
-1.2416933,-0.26002693,-1.201345,0,1
-1.7836361,-0.12872124,-1.3832752,0,1
-1.9951005,-0.037384987,-1.5148051,0,1
-1.774342,0.15879917,-1.4140344,0,1
-0.38084927,1.4792414,-0.6643884,0,1
-0.27115765,2.5649796,-0.5151318,0,1
-1.1212487,2.5039778,-0.99254483,0,1
-1.4389658,1.5495806,-1.0335923,0,1
-0.47287443,1.0781088,0.14189921,0,1
1.2912612,0.6913519,0.6237715,0,1
1.5878253,0.11730194,0.558015,0,1
1.2365812,-0.8053932,1.1959127,0,1
1.0177019,-0.95504,1.5988702,0,1
1.231128,-0.6076145,1.490372,0,1
1.5987618,-0.5390253,0.55130845,0,1
1.3211954,-0.8267231,0.238093,0,1
0.2567593,-1.1897764,0.42161936,0,1
-0.12087003,-1.0784931,0.66265213,0,1
-0.20091522,-0.9125929,0.61333615,0,1
-0.26825768,-0.75825405,0.061832584,0,1
-0.62636423,-0.5876665,-0.12195519,0,1
-1.5595049,-0.45000744,-0.4120901,0,1
-1.6977128,-0.561882,-0.60108,0,1
-1.0132533,-0.70009327,-0.614797,0,1
-0.06013087,-0.49732113,-0.44063652,0,1
0.09021716,-0.4070816,-0.19669238,0,1
-0.67041355,0.07724476,0.1294857,0,1
-1.2101666,0.4083748,-0.09904949,0,1
-1.8902137,0.6325226,-1.4490684,0,1
-2.6051793,0.5112486,-2.4304395,0,1
-3.042324,0.44141102,-2.4777584,0,1
-3.0382962,1.6279106,-1.7814028,0,1
-2.4614594,2.2658262,-1.1255102,0,1
-0.55346143,1.0021687,0.77093714,0,1
1.265939,1.9651814,2.4365814,0,1
1.6320124,3.2108345,2.7693496,0,1
1.7116185,2.2374496,1.6672851,0,1
1.6801113,0.42413044,0.6151885,0,1
0.51084805,-1.7011433,-0.08655286,0,1
-0.48116994,-0.64167976,0.58711517,0,1
-0.121244036,-0.3182392,0.41772524,0,1
0.742003,-1.2824802,-0.550071,0,1
0.749055,-1.7579451,-0.84072715,0,1
0.365031,-1.8062162,-0.7756969,0,1
0.22153828,-1.4796257,-0.3162048,0,1
0.16754392,-1.5515223,-0.20259091,0,1
0.15381208,-1.7791986,-0.39726302,0,1
0.17198598,-1.7003431,-0.4234041,0,1
-0.15188298,-1.5570927,0.11883201,0,1
0.07543002,-1.1781635,-0.3637714,0,1
0.22627285,-0.84489155,-1.0120486,0,1
-0.22111383,-0.053214073,-1.6894164,0,1
-0.6588872,0.33109856,-1.6935688,0,1
-1.3103224,0.9649019,-2.2428668,0,1
-1.9122144,0.5802593,-2.1528282,0,1
-1.3545846,0.36197948,-0.8298099,0,1
1.3130089,3.5613422,1.0400633,0,1
1.4949878,6.041136,0.69569814,0,1
0.19664282,1.9427576,1.0498863,0,1
0.111993134,-3.141303,2.242873,0,1
1.4285066,-1.8629851,1.9020321,0,1
3.6156528,1.6015005,0.8821552,0,1
3.8186069,1.9185982,0.8787428,0,1
2.5322793,-0.26499653,1.2099127,0,1
2.2582822,-0.7902937,1.3998019,0,1
2.0175972,-0.19200516,1.1901844,0,1
1.837389,0.32898426,0.20992309,0,1
1.742275,0.48372936,-0.5014114,0,1
0.50507486,-0.023639679,-1.7785316,0,1
0.11987735,-0.2381134,-1.2664381,0,1
0.45018458,0.06394291,0.06825158,0,1
0.83265096,0.357337,1.736117,0,1
1.0057946,0.5813408,1.5857102,0,1
1.0242487,1.4157982,0.4120163,0,1
0.2504146,0.6266756,-0.4820457,0,1
0.2959825,-0.13283062,-0.32091722,0,1
0.5080745,-1.4717369,0.14595193,0,1
0.24522322,-2.0407114,-0.23676543,0,1
0.07498789,-1.5532818,-1.5255383,0,1
-0.036073655,-0.14574051,-2.1239378,0,1
0.16670352,1.0747232,-2.1977868,0,1
0.9406258,3.6875134,-2.3459916,0,1
0.29504704,2.1449413,-1.7312945,0,1
-0.25825894,-2.0888567,1.7959151,0,1
1.7331376,-0.7597742,2.5889084,0,1
1.9409338,0.23148441,1.3334435,0,1
0.64852935,0.23616886,-0.24082375,0,1
0.12414173,-0.14044094,-0.11133042,0,1
0.07569002,-0.43480968,0.87019235,0,1
0.49143568,-0.37991714,1.1566527,0,1
0.6434752,-0.08035374,0.7017373,0,1
0.37990266,0.26223278,-0.19792455,0,1
-0.03739037,0.08056164,-0.3873618,0,1
-0.7199077,-0.28096962,-0.5596236,0,1
-0.6437782,-0.14005947,-0.8255029,0,1
-0.52179337,-0.053102493,-0.8455454,0,1
-0.5355207,-0.1241827,-0.7746779,0,1
-0.62997496,-0.18004513,-0.79323107,0,1
-1.1262447,0.026530266,-0.72588414,0,1
-1.8803542,0.09501171,-0.42265952,0,1
-2.1866314,-0.012206078,-0.33862275,0,1
-2.6157703,-0.29632664,-0.4335432,0,1
-2.7038362,-0.3292141,-0.4833484,0,1
-2.7140434,0.15769863,-0.4580929,0,1
-1.9927194,0.30311108,0.09981786,0,1
-1.2414843,0.10703564,0.18870743,0,1
-0.24739026,-0.17602444,-0.17415516,0,1
-0.45999718,-0.07327747,-0.3515287,0,1
-0.7294351,0.21821308,-0.2536011,0,1
0.13557838,0.1764803,-0.30420053,0,1
0.19723377,0.061511993,-0.31946284,0,1
-0.57854337,-0.21991348,-0.001400679,0,1
-0.9788113,-0.27745247,0.097382545,0,1
-1.1862321,-0.12665653,-0.40142432,0,1
-1.3612709,0.31649876,-0.81637347,0,1
-1.3635616,0.36542606,-0.79226506,0,1
-1.1453078,0.20932388,-0.41675317,0,1
-1.0739243,0.115262985,-0.19960189,0,1
-0.70209324,-0.041773796,-0.17964178,0,1
-0.25135988,-0.14348984,-0.34918603,0,1
-0.13946965,-0.019233704,-0.39712846,0,1
0.0865484,0.21976852,-0.6164944,0,1
0.087907515,0.20603466,-0.6638651,0,1
-0.17845891,-0.054792404,-0.48477525,0,1
-0.20645571,-0.111738205,-0.31359664,0,1
-0.13264877,-0.039806366,-0.28366613,0,1
-0.069750905,0.03275776,-0.28414237,0,1
-0.056311723,0.031204224,-0.28316408,0,1
0.040157057,0.12501812,-0.23914884,0,1
0.00367566,0.18577099,-0.2444304,0,1
-0.00168919,0.20018196,-0.2521254,0,1
-0.119790345,0.16657925,-0.28968742,0,1
-0.17673193,0.15524769,-0.28802496,0,1
-0.13457993,0.04731846,-0.12136355,0,1
-0.16580597,-0.05541706,-0.12652512,0,1
-0.2374953,-0.001089096,-0.24070562,0,1
-0.11660678,0.045640945,-0.30590853,0,1
-0.002665106,0.04560089,-0.21079421,0,1
-0.10325784,0.011210442,-0.1068134,0,1
-0.18945672,0.011322022,-0.2081724,0,1
-0.1728205,0.022947311,-0.23372018,0,1
-0.30884546,-0.041363716,-0.33246154,0,1
-0.5102509,-0.013948441,-0.41089165,0,1
-0.7909195,0.010428429,-0.54287994,0,1
-0.84835845,0.01587677,-0.48132265,0,1
-0.9212743,0.05457115,-0.39132965,0,1
-1.151046,0.06557751,-0.20744108,0,1
-1.2585968,-0.009797096,-0.14032218,0,1
-1.138393,-0.1738491,-0.21015751,0,1
-0.478989,0.27221394,-1.1210829,0,1
0.10281569,0.22953987,-1.3448733,0,1
0.5658681,-0.0728302,-0.5403851,0,1
0.18116838,-0.2107954,-0.21396564,0,1
0.18162405,-0.17810345,-0.25255573,0,1
0.9238121,0.116957664,0.03308844,0,1
0.7828091,0.11761284,0.19115287,0,1
0.09088871,-0.13020325,-0.013060709,0,1
0.048334837,-0.18369865,-0.1645589,0,1
0.26148662,-0.14444447,-0.3457678,0,1
0.46314836,-0.058431625,-0.21923961,0,1
0.55455154,0.001790047,-0.030444916,0,1
0.47203183,0.08865261,0.19418326,0,1
0.20990875,0.13385296,0.070221566,0,1
-0.3240224,0.2002964,-0.41630405,0,1
-0.26228324,0.002346039,-0.5561555,0,1
-0.12893921,-0.20808697,-0.46546915,0,1
0.040295336,-0.09432697,-0.4259929,0,1
0.08379033,0.004069328,-0.49663895,0,1
-0.1719948,0.059901237,-0.65296733,0,1
-0.36373016,0.07950878,-0.6534644,0,1
-0.36581528,0.007271767,-0.49177375,0,1
-0.0613955,-0.025162697,-0.051864766,0,1
0.15817337,0.023973465,0.082238734,0,1
0.16610134,0.024687767,0.07341772,0,1
-0.11487171,0.022937775,-0.076855086,0,1
-0.09865168,0.0756464,-0.13000366,0,1
0.13116693,0.09540844,-0.19338264,0,1
0.19227889,0.05981922,-0.15855801,0,1
0.085530885,-0.025996208,-0.22624642,0,1
0.08279918,0.019207954,-0.22518301,0,1
0.06527165,0.024321556,-0.2218799,0,1
-0.04398727,0.012435913,-0.3254765,0,1
-0.04954614,0.05253315,-0.37543756,0,1
0.0685893,0.114435196,-0.35855272,0,1
0.043474115,0.059921265,-0.24551822,0,1
0.004202969,0.008625984,-0.24179633,0,1
-0.028769642,-0.015767097,-0.2957807,0,1
-0.0745002,0.004603386,-0.3367908,0,1
-0.09923294,0.004835129,-0.25678605,0,1
-0.0580782,-0.031371117,-0.03632845,0,1
-0.048404776,-0.029997826,-0.026442528,0,1
0.09799042,0.032996178,-0.07587716,0,1
0.14571321,0.032814026,-0.04442559,0,1
0.05307438,-0.022208214,0.008923148,0,1
-0.045766536,0.020205498,-0.15440717,0,1
-0.058296703,0.054122925,-0.19403766,0,1
-0.049633674,0.02233982,-0.14861423,0,1
-0.019319706,0.03232193,-0.114707865,0,1
-0.033636175,0.048664093,-0.15279643,0,1
-0.09487032,0.040198326,-0.23910156,0,1
-0.10708305,0.03620243,-0.23583293,0,1
-0.07980943,0.057159424,-0.20835781,0,1
-0.04567439,0.050545692,-0.22005102,0,1
-0.003170639,-0.025772095,-0.18216698,0,1
-0.11360527,-0.011312485,-0.16491532,0,1
-0.1573001,0.007398605,-0.20899087,0,1
-0.19631983,0.045452118,-0.22101143,0,1
-0.18741088,0.047491074,-0.18948305,0,1
-0.22917959,0.018691063,-0.08617875,0,1
-0.31514394,5.34E-05,-0.076555975,0,1
-0.2642831,0.011191368,-0.13676482,0,1
-0.07070349,0.06755161,-0.1998626,0,1
-0.048819054,0.0678463,-0.15638973,0,1
-0.1256218,0.054636,-0.13788176,0,1
-0.17057215,0.1780405,-0.302778,0,1
0.027366146,0.28058815,-1.0261106,0,1
0.34036678,-0.109565735,-1.7651542,0,1
-0.038834915,-0.65518665,-0.2186106,0,1
0.56564164,-0.44884682,1.5560657,0,1
0.2420899,0.1484766,0.21631859,0,1
-0.06535943,0.09939861,-0.2799176,0,1
-0.000766842,0.08146,-0.25259355,0,1
-0.015516048,0.11003113,-0.13938993,0,1
-0.29080975,0.057126045,-0.15709099,0,1
-0.43899065,0.037823677,-0.32249096,0,1
-0.41307846,-0.0038023,-0.33719933,0,1
-0.39805582,-0.026946068,-0.4566613,0,1
-0.4004342,-0.017466545,-0.46404284,0,1
-0.12037581,0.003329277,-0.04153627,0,1
0.12554307,0.015564919,0.256007,0,1
0.1280854,0.04264736,0.2559456,0,1
-0.0956056,0.10864735,-0.3992518,0,1
-0.33604884,0.044403076,-0.67633367,0,1
-0.15066962,-0.04910755,-0.40477312,0,1
0.3121655,0.028844833,0.3858757,0,1
0.29729068,-0.009222031,0.56011873,0,1
-0.107608974,0.062734604,-0.41920385,0,1
-0.39433742,0.00674057,-0.9623948,0,1
-0.3864338,-0.054060936,-0.81659806,0,1
0.2584763,-0.010329247,0.2467154,0,1
0.5139844,-0.022128105,0.44021103,0,1
0.24186833,0.042342186,-0.003889455,0,1
-0.111397795,0.15858269,-0.24272205,0,1
-0.41207084,0.14121532,-0.49951053,0,1
-0.15706964,0.022702217,-0.37556618,0,1
0.022195537,-0.029194832,-0.06983271,0,1
0.04123325,-0.03758526,0.010351751,0,1
-0.1540648,0.006194115,-0.2746796,0,1
-0.12783962,0.034259796,-0.48927432,0,1
0.34191906,-0.007925987,-0.043739926,0,1
0.3525866,-0.06896877,0.041487984,0,1
0.001910595,-0.115216255,-0.15169853,0,1
-0.15213472,-0.017662048,-0.28472802,0,1
-0.27861813,0.15841007,-0.30208042,0,1
-0.20816974,-0.010987282,-0.020991039,0,1
-0.24600475,-0.03460312,-0.044582028,0,1
-0.31181931,-0.06112957,-0.89379084,0,1
-0.1731061,-0.11533737,-0.6898351,0,1
0.4533887,-0.11522579,0.6361673,0,1
0.5546004,0.1808424,0.5862892,0,1
0.10568149,0.19935131,0.241379,0,1
-0.6778103,0.13332748,-0.6605227,0,1
-0.7174089,0.08323479,-0.94296676,0,1
-0.20168215,-0.044896126,-0.48760948,0,1
0.47366428,0.005965233,0.3070032,0,1
0.457265,0.11088467,0.43201247,0,1
0.000501156,0.061102867,0.20585516,0,1
-0.22589041,0.085793495,-0.17654063,0,1
-0.44122475,0.08809376,-0.7001347,0,1
-0.084676325,-0.06030941,-0.18123277,0,1
0.1834566,-0.048312187,0.13828361,0,1
0.3494799,0.15386486,0.5084473,0,1
0.24891418,0.091041565,0.5217495,0,1
0.024543364,0.06293106,0.117675886,0,1
-0.16530839,0.030890465,-0.26422417,0,1
-0.057687163,0.01008606,-0.1671189,0,1
0.15027462,0.01052475,-0.030087907,0,1
0.10360254,0.019521713,0.041122872,0,1
0.19661652,-0.06784916,0.35348582,0,1
0.20413439,0.007127762,0.18291463,0,1
0.1114383,0.05232334,0.063588455,0,1
-0.09247278,0.090369225,-0.10360528,0,1
-0.055790164,0.10805607,-0.26322216,0,1
-0.1666436,0.11593819,-0.3701881,0,1
-0.07919737,0.017682076,-0.25412437,0,1
0.003481455,-0.044117928,-0.14216399,0,1
0.003904927,-0.11008167,-0.015956307,0,1
0.014485414,-0.09717369,-0.081628665,0,1
-0.05206546,0.014307976,-0.29926395,0,1
-0.05445475,0.054911613,-0.20474772,0,1
-0.060087804,0.05080414,-0.17358199,0,1
-0.06262557,0.07428455,-0.25401786,0,1
-0.042875953,0.09222698,-0.26841936,0,1
-0.08848098,0.015358925,-0.2746679,0,1
-0.08134468,-0.07090855,-0.16895415,0,1
-0.05218941,-0.06169796,-0.16352989,0,1
0.012266899,0.021681786,-0.17731571,0,1
-0.005760307,0.034453392,-0.16868658,0,1
-0.08721032,0.013263702,-0.23545438,0,1
-0.04810051,0.030424118,-0.18976417,0,1
-0.059679385,0.03698063,-0.16736048,0,1
-0.037261277,0.003750801,-0.028243402,0,1
0.022223007,-0.022730827,0.002833003,0,1
0.000128038,0.029664993,-0.17050245,0,1
-0.07260848,0.02522564,-0.15539877,0,1
-0.06097576,0.002929688,-0.092381895,0,1
0.007575804,-0.018722534,-0.069701746,0,1
0.035601236,-0.01585865,-0.08845755,0,1
0.047200777,0.037599564,-0.024434596,0,1
0.023142865,0.03270626,0.007820512,0,1
0.045446858,0.040288925,-0.00054144,0,1
0.057577908,0.045035362,-0.021852128,0,1
0.03170188,0.027677536,-0.046805467,0,1
0.0753197,-0.04033947,0.047898006,0,1
0.1860293,-0.067502975,0.07266082,0,1
0.2606108,-0.062257767,0.16172913,0,1
0.28914544,-0.03768921,0.31111965,0,1
0.23668242,-0.029170036,0.26932392,0,1
0.44466376,-0.014533997,0.19334722,0,1
0.6722088,0.12604809,0.2468659,0,1
0.66752225,0.106259346,0.2836345,0,1
0.7791454,0.09458351,0.21979368,0,1
0.7644444,0.16354752,0.14180359,0,1
0.63588095,0.09043217,0.27303365,0,1
0.7253884,-0.06296539,0.5627979,0,1
0.72152245,-0.08498287,0.5619051,0,1
0.4776748,-0.10848904,0.4201117,0,1
0.34760708,-0.14839458,0.31468976,0,1
0.38000333,-0.1743393,0.18005022,0,1
0.3543977,-0.14897633,0.12313451,0,1
0.17604417,-0.16922665,0.18203686,0,1
-0.03057976,-0.21159267,0.13770269,0,1
0.01139312,-0.24308872,0.11872257,0,1
0.33112133,-0.26409245,0.29997656,0,1
0.8365483,-0.3553028,0.48602825,0,1
1.1877164,-0.34691143,0.48655716,0,1
1.8628027,-0.16503239,0.44368047,0,1
2.0216026,-0.06138611,0.49158025,0,1
2.013311,0.14544582,0.6996647,0,1
1.9779856,0.6255331,0.97663426,0,1
1.9277005,0.7946615,1.0898865,0,1
1.7135013,1.3001909,1.1139071,0,1
1.6110641,1.6055079,1.08813,0,1
0.9889602,1.34132,1.1228163,0,1
-0.5798673,0.8607149,-1.1014045,0,1
-1.6813895,0.23597813,-2.2649026,0,1
-3.0884736,-0.22364902,-2.3741472,0,1
-2.4971342,0.50599766,-1.4871973,0,1
-0.26614398,1.34021,-0.54584795,0,1
0.564906,0.45257378,-0.3649541,0,1
0.1665857,-0.23938751,-0.34868544,0,1
