Acc_x [m/s^2],Acc_y [m/s^2],Acc_z [m/s^2],AnyFall,NegOutcome
-0.36981198,-0.13609402,0.5645984,0,1
-0.3079491,0.06949437,0.66896796,0,1
-0.09373828,0.27243537,0.8524691,0,1
-0.004119538,0.14986436,0.8077811,0,1
0.03660974,-0.21492189,0.5018967,0,1
0.006252889,-0.19676967,0.42991602,0,1
-0.00041227,0.18008146,0.42384398,0,1
-0.14233366,0.54688376,0.5302771,0,1
-0.2603172,0.6846324,0.5175805,0,1
-0.27833936,1.2793896,0.5333157,0,1
-0.065779276,1.5900434,0.6306688,0,1
0.5801481,2.372644,1.2218306,0,1
0.67574704,2.1848855,1.6906269,0,1
0.7068209,1.884977,1.8934208,0,1
1.3607585,0.84725916,2.5895922,0,1
1.4129995,0.057733074,2.57589,0,1
0.8231305,-0.96744806,1.5995224,0,1
0.5120932,-0.83665663,0.2177941,0,1
0.24990585,-1.0618594,-0.36051285,0,1
-0.54860014,-2.6127906,-1.1825979,0,1
-0.724155,-3.0388362,-1.5362213,0,1
-0.6460273,-2.271727,-1.7299187,0,1
-0.07152134,-0.40604523,-1.139742,0,1
0.11224987,0.1482972,-0.7156871,0,1
-0.007354152,0.36172962,-0.19696231,0,1
-0.064848065,0.26675224,-0.23409802,0,1
-0.11115287,-0.05833829,-0.643724,0,1
-0.15294868,-0.16681786,-1.0278926,0,1
-0.20437807,-0.18817925,-1.1683339,0,1
-0.27416012,-0.26966023,-1.1820396,0,1
-0.27389783,-0.34454176,-1.0312531,0,1
-0.20439255,-0.24517837,-0.62525403,0,1
-0.11422373,0.2664556,-0.4276771,0,1
-0.08052417,0.37167257,-0.41947532,0,1
0.044209987,0.18352027,-0.31094325,0,1
0.065346494,0.000164002,-0.1763613,0,1
0.046659492,-0.28073406,0.1479146,0,1
0.19716154,-0.12479013,0.38295674,0,1
0.27067295,0.18830308,0.3137043,0,1
0.1510518,0.4928332,-0.050498195,0,1
-0.000590671,0.24256994,-0.07875347,0,1
-0.19973789,-0.23212816,0.06624216,0,1
-0.12980372,-0.056982018,0.17266333,0,1
-0.077282876,0.019961424,0.37096345,0,1
-0.07635322,0.001501235,0.858139,0,1
-0.10812998,-0.050489273,0.9042858,0,1
-0.14803407,-0.093341716,0.6721586,0,1
-0.15711491,0.06913385,0.47878638,0,1
-0.17358878,0.08444126,0.3878878,0,1
-0.16739944,-0.07909297,0.119169325,0,1
-0.1418766,-0.10559942,0.008563492,0,1
0.02200427,-0.07867433,-0.037785575,0,1
0.022254182,0.03571225,0.01081878,0,1
0.007898335,0.05572606,-0.004296017,0,1
0.018078893,0.04329872,-0.02420688,0,1
0.040122066,0.056073196,0.002377739,0,1
0.055536453,0.06478693,0.0745486,0,1
0.036690146,-0.008789043,0.11217997,0,1
0.023148123,-0.028965933,0.1128073,0,1
-0.042725742,0.007381461,0.12220235,0,1
-0.07095328,0.034464866,0.16245231,0,1
-0.060297843,0.01533607,0.18513012,0,1
-0.010189105,-0.020949332,0.19044222,0,1
0.006587572,-0.021990739,0.21396904,0,1
0.017899506,-0.03382107,0.23155987,0,1
0.032851793,-0.040903058,0.21419008,0,1
0.065089606,0.003312136,0.13214988,0,1
0.049093515,0.18162347,-0.017136069,0,1
0.018928679,0.31491184,-0.19633275,0,1
-0.010252044,0.43801966,-0.7677295,0,1
-0.07636775,0.25807273,-0.8133332,0,1
-0.21689738,-0.31401166,-0.39273623,0,1
-0.17518283,-0.8423501,-0.09412657,0,1
-0.19662574,-0.9124404,-0.11983953,0,1
0.03703169,-0.19857794,-0.1630459,0,1
0.11270128,0.14365675,0.016523555,0,1
0.006719548,0.35271564,0.69573224,0,1
-0.006352909,0.46821907,1.1447494,0,1
-0.11102926,0.28335023,1.176475,0,1
-0.25991642,-0.16097341,0.86120665,0,1
-0.2340583,-0.09622469,0.66027004,0,1
-0.18364374,0.056983076,0.4313148,0,1
-0.22953878,-0.17732137,0.46778655,0,1
-0.19749592,-0.23129077,0.4691683,0,1
-0.084721975,-0.12258429,0.38513017,0,1
-0.041808285,-0.12386508,0.341172,0,1
0.051616512,-0.16489217,0.22783321,0,1
0.14043783,-0.12624453,0.17712505,0,1
0.21112847,-0.22288224,0.27434266,0,1
0.2111235,-0.29675958,0.2902422,0,1
0.13126223,-0.22786142,0.10746822,0,1
0.05991442,-0.06808762,-0.19945455,0,1
-0.030600734,0.069437936,-0.28657678,0,1
-0.062334277,0.091103494,-0.3627765,0,1
-0.08208973,0.018220827,-0.42391285,0,1
-0.10308862,-0.05002411,-0.38933498,0,1
-0.094776675,-0.2463294,-0.35015127,0,1
0.0755202,-0.40536225,-0.28905398,0,1
0.17524467,-0.54739773,-0.23050888,0,1
0.25271374,-0.8090936,-0.08472194,0,1
0.22774756,-0.62440974,-0.02241378,0,1
0.13760039,-0.034511585,-0.09160506,0,1
-0.1246128,-0.07279402,-0.284299,0,1
-0.1645731,-0.23293027,-0.35725516,0,1
-0.10296711,-0.4595472,-0.45945397,0,1
-0.015206113,-0.5558454,-0.46869624,0,1
0.004173171,-0.86428565,-0.43445566,0,1
-0.04247848,-0.61856097,-0.6282273,0,1
0.048006788,-0.36028782,-0.6002721,0,1
0.2378194,-0.18558022,0.18768102,0,1
0.31660116,0.067182645,0.49743608,0,1
0.44170925,0.94281316,0.5208637,0,1
0.5768371,1.2556766,1.496987,0,1
0.51373833,1.4141936,1.8777205,0,1
0.35537112,2.160212,1.4558444,0,1
0.32555252,2.26154,1.28567,0,1
0.3067029,1.8534026,1.4135712,0,1
0.3616669,1.4241803,0.43394658,0,1
0.2220619,0.70375544,-0.067986906,0,1
-0.18912382,-0.5468341,-0.4650086,0,1
-0.17255583,-0.6516411,-0.59309965,0,1
-0.16097167,-0.49879757,-0.48780745,0,1
-0.4145585,-0.5173436,-0.114070475,0,1
-0.4338219,-0.40905103,-0.058341645,0,1
-0.471173,0.082125686,0.12609181,0,1
-0.5316556,0.1757002,0.06799907,0,1
-0.55724615,0.097667694,-0.045867614,0,1
-0.18057097,0.24545006,0.13482952,0,1
-0.05409225,0.15360169,0.17341222,0,1
-0.1699606,-0.12506962,0.09588816,0,1
-0.11386854,-0.2520285,0.028058158,0,1
-0.14130905,-0.6802521,0.49062997,0,1
-0.6022694,-0.9866914,0.9554605,0,1
-0.721595,-0.7139405,0.99691296,0,1
-1.0193701,-0.42362678,1.1115702,0,1
-1.186126,-0.51254165,1.2815732,0,1
-0.7429286,-0.27852133,1.4455935,0,1
-0.2679273,-0.22312723,0.9618603,0,1
-0.3259814,-0.6678933,0.9912266,0,1
-0.6598248,-1.4392918,1.1469381,0,1
-0.29352754,-0.7901763,1.2263813,0,1
0.8717375,1.0730299,1.4458526,0,1
0.74089175,1.2711775,0.50748414,0,1
0.6393973,0.8168259,-0.41978273,0,1
0.814298,-0.2772877,-1.0226283,0,1
1.0118895,-0.7867167,-0.74659556,0,1
1.3014147,-0.41623986,-0.4810266,0,1
0.9557334,0.8253156,-0.2307173,0,1
0.5522992,0.76715386,-0.06490179,0,1
-0.18723123,0.4492017,0.27549806,0,1
-0.31856415,0.52549183,0.3393742,0,1
-0.3590908,0.5471774,0.16118434,0,1
-0.23915432,0.3072147,-0.24740459,0,1
-0.21805467,0.008048017,-0.2145502,0,1
-0.08080839,-0.23727708,-0.044687305,0,1
0.013443891,-0.020831142,-0.18182804,0,1
-0.014878335,0.025347654,-0.33773378,0,1
0.013161724,-0.30882648,0.07709852,0,1
0.11025215,-0.21494484,0.15090105,0,1
0.000135032,-0.08264826,0.10750779,0,1
-0.2141007,-0.14490795,0.08580013,0,1
-0.44243494,-0.06467533,0.07933752,0,1
-0.39833522,0.17132385,0.3424156,0,1
-0.38894856,0.189211,0.43863988,0,1
-0.3869643,0.02970701,0.32724434,0,1
-0.30091307,0.014978466,0.3380095,0,1
-0.000617132,0.027806353,0.37363824,0,1
0.112291306,-0.15476988,0.17758936,0,1
0.09291883,-0.19684507,0.057714466,0,1
0.036537625,0.001065252,-0.016086102,0,1
-0.016735751,0.061578754,-0.02085109,0,1
-0.11153079,0.030346869,-0.017007113,0,1
-0.022138454,0.23441418,0.23433587,0,1
0.09053785,0.3684779,0.35100707,0,1
0.28991944,0.22535905,0.30895102,0,1
0.33363542,0.022061406,0.27640215,0,1
0.33601275,0.10571391,0.27042407,0,1
0.14977887,0.20003615,0.36953261,0,1
-0.04075392,-0.005150698,0.553536,0,1
-0.29585394,-0.1735953,0.85715085,0,1
-0.23551452,-0.026751358,0.9452549,0,1
0.10435261,0.26011014,1.1964886,0,1
0.49994332,0.10490824,1.298231,0,1
0.41196513,0.000449381,1.0858889,0,1
-0.24637341,-0.018235145,0.38481215,0,1
-0.4511686,-0.03414534,0.14724585,0,1
-0.3962668,-0.18270403,-0.17611444,0,1
-0.14590317,0.015682133,-0.48940018,0,1
-0.011729863,0.22198577,-0.44766986,0,1
0.10869291,0.34717852,0.089017816,0,1
0.06304467,0.3314334,0.3259894,0,1
0.088097006,0.48327368,0.66839737,0,1
0.1736128,0.30319524,1.1188027,0,1
0.25804138,0.1490376,1.262651,0,1
0.41266704,0.06915214,1.3934317,0,1
0.3679369,-0.1349294,1.457689,0,1
0.0708,-0.37568936,1.1914018,0,1
-0.15495096,-0.11263643,0.8732827,0,1
-0.20361924,-0.09818922,0.8777889,0,1
-0.30122364,-0.36665052,0.61388457,0,1
-0.33287516,-0.38660336,0.32724687,0,1
-0.3240339,0.22302917,0.013497374,0,1
-0.26175037,0.8573391,0.21172068,0,1
-0.18155225,1.4770701,0.41030487,0,1
0.47932792,2.8453822,0.828302,0,1
0.64480335,2.748878,1.0075169,0,1
0.44844356,1.9776272,0.7304679,0,1
0.7684188,1.1563829,1.3041472,0,1
0.68599474,0.29884943,1.5458266,0,1
0.257428,-0.47714224,0.8007243,0,1
0.25044397,-0.45596698,0.20740028,0,1
-0.062280063,-0.86504775,-0.93938106,0,1
-0.5335994,-1.119737,-1.6084106,0,1
-0.4287777,-0.9553103,-1.7561226,0,1
-0.11091669,-0.9850544,-1.2053715,0,1
-0.17377162,-1.2695515,-0.7135968,0,1
-0.39073008,-1.4855397,-0.3155862,0,1
-0.5145742,-1.045523,-1.0068072,0,1
-0.5300858,-0.8096374,-1.2951607,0,1
-0.37517548,-0.6826585,-1.1600112,0,1
-0.27508193,-0.66903806,-0.87597036,0,1
-0.08410289,-0.13239872,-0.54385424,0,1
0.009268113,0.24943537,-0.54523057,0,1
-0.007387817,0.17116444,-0.51502585,0,1
-0.006846227,-0.11872303,-0.5333778,0,1
0.0485754,-0.14681159,-0.5312229,0,1
0.09865994,-0.20456131,-0.22905435,0,1
0.023707611,-0.24526978,0.17237005,0,1
0.043890372,-0.120761834,0.2889456,0,1
0.15719916,0.2257043,0.36883646,0,1
0.17814122,0.24789914,0.3148382,0,1
0.06392557,-0.051980015,0.059940998,0,1
0.010771688,-0.056696936,-0.21285607,0,1
0.02714773,0.033097222,-0.2665936,0,1
0.022093877,-0.020256085,-0.23428564,0,1
-0.0013598,-0.005692521,-0.21602084,0,1
0.006000525,0.099748604,-0.1168183,0,1
0.061087795,-0.15974523,0.031115178,0,1
0.009076733,-0.33408263,0.007303803,0,1
-0.33367687,-0.61988926,0.22431754,0,1
-0.49439973,-0.6885624,0.55030656,0,1
-0.38091567,-0.02619731,0.7533604,0,1
-0.31333137,0.6998388,0.5555404,0,1
-0.54531634,0.35959068,0.79433733,0,1
-0.6486477,-0.14947204,1.2665612,0,1
-0.5325165,-0.08212164,1.2733489,0,1
-0.14248407,-0.19508062,0.9645238,0,1
0.41550738,-0.26188174,0.67659813,0,1
0.5739187,-0.03717317,0.52801645,0,1
0.42446676,0.23205,0.162286,0,1
0.28571427,0.08375933,0.035839874,0,1
0.40321895,-0.16938686,0.07535696,0,1
0.5549395,0.104226194,0.32212242,0,1
0.5730307,0.16252528,0.44682625,0,1
0.59691364,0.07405583,0.7741178,0,1
0.6296562,0.026058376,0.919836,0,1
0.55469733,-0.026587347,0.750882,0,1
0.29603165,-0.2365493,0.56714886,0,1
0.11221224,-0.2522029,0.6356242,0,1
-0.20417644,0.1665555,0.46713904,0,1
-0.23708022,0.3033982,0.1161387,0,1
-0.08130521,0.15016077,-0.13441189,0,1
0.29789487,0.13589396,0.6652373,0,1
0.39535737,0.12528822,1.0311097,0,1
0.31725413,-0.1696804,1.1327819,0,1
0.24958804,-0.13652119,0.9324595,0,1
-0.099740125,0.19033536,0.33116883,0,1
-0.5755919,0.6141404,-1.0005212,0,1
-0.6509627,0.49979562,-1.8761519,0,1
-0.77292746,-0.62783194,-2.120807,0,1
-0.93549645,-0.9388021,-1.3386712,0,1
-0.9669219,0.367073,-0.36313364,0,1
-0.17387086,1.2695322,-0.41778645,0,1
-0.09911963,0.9470531,0.13821423,0,1
-0.60445565,0.39562452,1.7353508,0,1
-0.96536684,-0.10337507,2.2486143,0,1
-1.2320615,-1.0883957,3.1088874,0,1
-0.608055,-1.3317847,3.2150753,0,1
-0.2888213,-1.6682708,2.6189716,0,1
0.21526766,-2.7160075,-0.051441904,0,1
0.2831906,-2.586095,-2.2987497,0,1
-0.11056167,-0.43417877,-7.2753115,0,1
0.66647565,0.446734,-8.149965,0,1
0.15858316,0.28304395,-5.0609756,0,1
-0.024876509,1.1510583,-0.14937903,0,1
1.2554225,1.874634,-0.3081613,0,1
2.0415616,1.6132184,-1.0110581,0,1
1.7528133,-0.076886214,-0.34282175,0,1
2.3969195,-0.4897052,-0.6270297,0,1
3.3416271,-0.8175595,-0.9344677,0,1
2.9570327,-1.1000873,-0.4013052,0,1
1.0676894,-1.1791487,0.794692,0,1
-0.2854974,-0.5043334,0.9416548,0,1
-1.1333017,-0.70526206,0.9539022,0,1
-2.0603004,-1.4188919,0.56218684,0,1
-1.1596307,-1.69891,0.18690044,0,1
-1.0817821,0.52309525,0.51798856,0,1
-3.988921,2.0170252,1.062133,0,1
-3.259392,0.4577284,-0.025701351,0,1
-0.9866525,-0.6275418,-1.0190833,0,1
-1.10547,-1.0705035,-0.6906837,0,1
-1.7670739,-2.0537608,0.065085486,0,1
-1.2990575,-1.8548833,0.6411966,0,1
-0.6070348,-1.3908854,0.6553656,0,1
0.66477495,-0.6368007,0.45627362,0,1
0.69451076,-1.2328358,0.36960715,0,1
0.09548648,-0.47290042,0.12362638,0,1
1.5531588,0.66572493,0.5736229,0,1
1.4237401,0.40293235,0.50980794,0,1
0.5696422,0.9858009,0.2489876,0,1
0.73669183,0.85454196,0.3168076,0,1
0.12666832,-0.073039085,-0.14316635,0,1
1.8445882,1.7502712,0.33700746,0,1
1.5110569,1.7216315,0.9379319,0,1
-0.4143455,0.57681954,0.40618312,0,1
0.096212015,0.29719934,0.29987413,0,1
-0.7108443,0.5790472,-0.17526633,0,1
-1.7087597,0.23663118,-1.1802362,0,1
-1.5455694,0.33615378,-1.21147,0,1
-1.0565909,0.9508314,-0.4075899,0,1
-0.47694227,0.92109406,0.003137094,0,1
1.1948514,0.14681707,-0.9308531,0,1
0.80865896,-0.27065787,-1.7719644,0,1
0.6979314,0.04315257,-1.4256179,0,1
0.5751901,1.1104,-1.9593939,0,1
0.42234218,2.0181713,-1.9679512,0,1
0.12530233,2.746564,-1.7542863,0,1
0.40288106,1.6429178,-0.862984,0,1
0.8455267,0.87024415,-0.103084885,0,1
0.4825611,-0.67989147,1.0632074,0,1
-0.6475613,-1.2441415,1.1381629,0,1
-2.4928794,-1.6168034,0.56229883,0,1
-2.521104,-0.15481848,0.70673263,0,1
-2.0193393,0.53103846,0.77300084,0,1
-0.33871904,0.5349648,1.0936686,0,1
0.012464143,0.57499915,1.2088171,0,1
0.36584818,0.010585876,0.47214618,0,1
-1.1120443,0.6575118,0.033873826,0,1
-2.1738014,2.1170504,-0.41370627,0,1
-1.8003259,2.237395,-1.8929703,0,1
-1.0081285,1.4374092,-2.0280492,0,1
-0.96403205,-0.70908105,-1.5798354,0,1
-1.9749153,-0.7307568,0.12539928,0,1
-0.3484448,0.301549,0.06246882,0,1
-0.9977803,-0.28853592,1.165352,0,1
-1.3543693,0.12995355,0.9969365,0,1
-1.0320191,0.13470078,0.05390204,0,1
-0.4190877,0.731207,0.52096903,0,1
-0.53366804,1.0973151,0.7185202,0,1
-0.80996734,1.3056481,0.80440503,0,1
-0.75565225,1.4561074,0.73512644,0,1
-0.3827305,0.94787145,0.8504395,0,1
-0.6455497,0.94859535,1.1053957,0,1
-0.6660696,1.1745151,1.5193799,0,1
-1.0060976,1.0919775,1.331621,0,1
-1.6936874,1.1527226,0.7687809,0,1
-1.6178083,0.7567685,1.2228673,0,1
-0.08811614,0.15968537,1.2928231,0,1
0.7077569,-0.4722843,0.5128748,0,1
1.9189416,-1.7960141,-0.49830756,0,1
1.8231854,-2.0092852,-0.50034446,0,1
1.0458937,-3.8261113,-2.6654637,0,1
1.2338382,-5.0300617,-4.170827,0,1
1.2036526,-4.5997853,-2.912095,0,1
1.1934695,-3.1651149,-0.7573752,0,1
1.2816322,-2.2149951,-0.025836537,0,1
0.99993783,0.4016793,1.0712746,0,1
1.8825934,1.2956622,0.77811635,0,1
2.187327,0.65508753,-0.20791568,0,1
1.9669154,-1.3510356,-2.3371704,0,1
2.1336117,-2.437525,-2.8117967,0,1
2.0497377,-3.6945667,-2.588469,0,1
0.09127055,-1.1485524,-1.859488,0,1
-1.050367,1.9850473,-0.9274381,0,1
-2.5210097,6.3897424,2.7944016,0,1
-1.6945037,6.8844476,2.9658837,0,1
-0.7474401,3.621988,1.9164594,0,1
-0.5226046,-1.682909,1.1281586,0,1
0.49606606,-3.24459,0.96843106,0,1
0.8394052,-2.5399728,1.140548,0,1
0.44834882,-1.2865561,1.0253727,0,1
-0.6650678,1.8939966,0.5834152,0,1
-0.7404982,3.6449895,0.35128564,0,1
-0.43526343,3.3044047,0.22032256,0,1
-0.031761553,0.8855411,-0.116772816,0,1
-0.37028053,-0.50408757,-0.37602952,0,1
-1.004368,-1.3864567,-0.4491938,0,1
-0.42170995,-0.39336878,0.09403298,0,1
-0.38633057,0.11457064,0.066862814,0,1
-0.09722889,0.77058613,0.005585431,0,1
0.3169445,0.62299836,0.15266936,0,1
0.7016773,-0.24784657,0.2586439,0,1
0.1834156,-0.5501185,-0.005000728,0,1
-0.002436088,-0.46064863,-0.19980311,0,1
0.093739696,-0.26576146,-0.3965159,0,1
0.282322,-0.1780644,-0.2930875,0,1
0.5903946,-0.16960241,-0.06818965,0,1
0.5303654,-0.42127523,-0.2765554,0,1
0.34701395,-0.4746238,-0.3385236,0,1
-0.111485705,-0.18949898,-0.2586641,0,1
-0.286982,-0.010333109,-0.23062213,0,1
-0.45190948,0.18667315,-0.08764093,0,1
-0.16027926,0.0032196,-0.009352365,0,1
0.003923236,-0.13550283,-0.015816681,0,1
0.017198328,0.02489474,0.12205984,0,1
0.017205916,0.118758254,0.19650476,0,1
0.23540205,-0.11705016,0.110851824,0,1
0.29893944,-0.2170582,0.03421983,0,1
0.24699055,-0.14626981,0.006649878,0,1
0.0925655,-0.054392837,-0.08892345,0,1
0.051037066,-0.13720517,-0.19427381,0,1
-0.1057346,-0.2738,-0.38305497,0,1
-0.40881574,0.029727912,-0.12097261,0,1
-0.48093462,0.27156836,0.15501979,0,1
-0.39288607,0.38632023,0.41207084,0,1
-0.2513486,0.23429307,0.3666264,0,1
-0.013374453,-0.011980034,0.1431846,0,1
0.13122623,-0.049851418,0.020190451,0,1
0.19837965,-0.1123953,-0.03192717,0,1
0.10105215,-0.029627819,-0.09324635,0,1
0.033472784,0.047245022,-0.061361894,0,1
0.1158763,-0.13679983,0.025755526,0,1
0.04980343,-0.051848415,0.01846029,0,1
-0.04083724,0.08138563,0.03294813,0,1
-0.052832562,0.12832358,0.12649006,0,1
-0.041236665,0.084244765,0.15796466,0,1
-0.094977275,0.073625594,0.13089274,0,1
-0.17414185,0.0780926,0.116558746,0,1
-0.18348242,0.085445434,0.12576628,0,1
-0.13836607,0.11236575,0.10257661,0,1
-0.113209076,0.13740543,0.09575668,0,1
-0.07978367,0.14306359,0.15883026,0,1
-0.011636702,0.031254806,0.18729874,0,1
0.021050807,0.000885034,0.13553132,0,1
-0.031674128,0.07227232,0.066473894,0,1
-0.0509459,0.09811786,0.06942661,0,1
0.046105575,-0.029300684,0.04589513,0,1
0.014993791,-0.116477035,-0.023101026,0,1
-0.06540869,-0.06839086,-0.047258504,0,1
-0.09798166,0.009882918,-0.046441253,0,1
-0.05693785,-0.005992894,-0.013033495,0,1
-0.08107029,0.024321564,0.0289715,0,1
-0.14650121,0.11992457,0.059597157,0,1
-0.13022627,0.100735694,0.08948371,0,1
-0.0944771,0.056333564,0.094568565,0,1
-0.090471536,0.062986396,0.110270135,0,1
-0.09594617,0.08632186,0.1233821,0,1
-0.092814595,0.0743685,0.110613935,0,1
-0.06482926,0.057350185,0.119375706,0,1
0.014542986,-0.006690956,0.13476522,0,1
0.020642914,-0.018364888,0.11592366,0,1
-0.07789361,0.058495533,0.039068654,0,1
-0.111926906,0.07768061,0.08555537,0,1
-0.09489006,0.066220306,0.10592741,0,1
-0.107564226,0.08575251,0.10874613,0,1
-0.11471779,0.05610182,0.08933123,0,1
-0.05714649,-0.05977918,-0.017975904,0,1
-0.057881776,-0.023657804,-0.0011593,0,1
-0.09576731,0.04069329,0.037801336,0,1
-0.0858361,0.07478239,0.06580389,0,1
-0.043786455,0.04018785,0.06044076,0,1
-0.034133844,0.0422621,0.109745696,0,1
-0.11231878,0.1176701,0.12454549,0,1
-0.108665526,0.09981159,0.13076656,0,1
-0.06248855,0.011834169,0.13409546,0,1
-0.05909835,0.011973405,0.13023935,0,1
-0.09613633,0.04578306,0.10245644,0,1
-0.10477511,0.059231784,0.11424022,0,1
-0.098267466,0.050424606,0.12748177,0,1
-0.076099426,0.060808208,0.12161636,0,1
-0.06722464,0.08034899,0.10544914,0,1
-0.051427968,0.030894294,0.06613074,0,1
-0.10693873,0.044626247,0.045709424,0,1
-0.1558049,0.08539964,0.042674378,0,1
-0.0929148,0.040017143,0.07811821,0,1
-0.027652722,0.008757608,0.08973392,0,1
-0.0593125,0.030532854,0.0821496,0,1
-0.08344672,0.030564329,0.10360292,0,1
-0.07281531,0.00993063,0.10955582,0,1
-0.042287502,0.011391658,0.10359173,0,1
-0.06718952,0.033876438,0.09947094,0,1
-0.087130755,0.047596954,0.08286588,0,1
-0.055828363,0.009082805,0.06262495,0,1
-0.0777711,0.000341427,0.0707574,0,1
-0.12525871,0.032462142,0.10677534,0,1
-0.09412061,0.03724577,0.103442185,0,1
-0.057108134,0.027866377,0.058639314,0,1
-0.07102387,0.06128313,0.07358007,0,1
-0.08929431,0.044614807,0.062942505,0,1
-0.06946971,0.003704085,0.08118415,0,1
-0.060638264,0.013178842,0.0884289,0,1
-0.10533576,0.029625908,0.072166294,0,1
-0.096962415,0.0306616,0.08359077,0,1
-0.081069775,0.027427692,0.08870338,0,1
-0.07377948,0.0364609,0.10368365,0,1
-0.078775324,0.047858264,0.11327011,0,1
-0.08448149,0.028435728,0.102998935,0,1
-0.059009884,0.006135003,0.09250172,0,1
-0.07314697,0.023077026,0.07996855,0,1
-0.10103993,0.054858226,0.06496933,0,1
-0.09572542,0.037495624,0.059840433,0,1
-0.061389387,0.02066137,0.09134742,0,1
-0.08049367,0.042840976,0.09647245,0,1
-0.09898265,0.058482192,0.09818266,0,1
-0.12281911,0.059155487,0.095523335,0,1
-0.13105014,0.048597354,0.06940837,0,1
-0.09353107,0.055754673,0.04012455,0,1
-0.0444728,0.028535854,0.043893218,0,1
-0.061102338,0.029935848,0.0440895,0,1
-0.09454309,0.035680786,0.06862623,0,1
-0.07670655,0.022836698,0.07342361,0,1
-0.08060391,0.010587701,0.049573936,0,1
-0.08199687,0.006058704,0.066263594,0,1
-0.07825118,0.003934874,0.080199726,0,1
-0.07805706,0.005647676,0.097326554,0,1
-0.07731524,0.013495461,0.08840385,0,1
-0.09187058,0.05814173,0.08725497,0,1
-0.08912897,0.06839087,0.08784254,0,1
-0.08368128,0.04667379,0.07138675,0,1
-0.118920065,0.056277294,0.08176483,0,1
-0.12821843,0.088788055,0.09804144,0,1
-0.088027306,0.04056265,0.08629675,0,1
-0.09855063,0.015358935,0.054492038,0,1
-0.096130356,0.031427395,0.04938413,0,1
-0.0699257,0.015774738,0.05527739,0,1
-0.06586023,0.008024227,0.06487092,0,1
-0.063114,0.006796848,0.061914664,0,1
-0.10388173,0.00294686,0.04238744,0,1
-0.11121149,0.008280758,0.027015874,0,1
-0.0993285,0.017222412,0.041879673,0,1
-0.094780445,0.033597957,0.041441906,0,1
-0.09286205,0.041955,0.03521302,0,1
-0.09690198,0.033223163,0.05689599,0,1
-0.0899459,0.0433941,0.048041925,0,1
-0.07530169,0.03959943,0.055318337,0,1
-0.07266636,0.04547407,0.088318534,0,1
-0.077902734,0.073173545,0.11233048,0,1
-0.055404756,0.014632238,0.06588138,0,1
-0.07397353,0.000473987,0.06864835,0,1
-0.08036396,0.02576257,0.050176974,0,1
-0.082147725,0.042623527,0.036902145,0,1
-0.10262392,0.05544569,0.0664261,0,1
-0.0918482,0.031366367,0.09872298,0,1
-0.0894186,0.017329235,0.10326706,0,1
-0.12277875,0.027318973,0.100449994,0,1
-0.13729542,0.032053012,0.107253954,0,1
-0.094362974,0.037363075,0.10833245,0,1
-0.085415274,0.05325797,0.106510326,0,1
-0.09380115,0.058183696,0.12405561,0,1
-0.11761647,0.041536346,0.07135926,0,1
-0.12851816,0.037153248,0.021847263,0,1
-0.11583258,-0.007822987,0.038991347,0,1
-0.10924632,-0.08548451,0.010651933,0,1
-0.09597446,-0.063600555,-0.020756748,0,1
-0.05144131,0.042150497,-0.023383263,0,1
-0.04230151,0.07175352,0.040421735,0,1
-0.071383804,0.06985383,0.21168077,0,1
-0.07251272,0.061576914,0.37263298,0,1
-0.0974876,0.010646879,0.3338241,0,1
-0.18659674,-0.009327898,-0.029792689,0,1
-0.17514156,0.07199475,-0.21084566,0,1
-0.104116604,0.11068532,-0.24330945,0,1
-0.06751646,0.04720119,0.15056182,0,1
-0.08419454,0.011941964,0.30006284,0,1
-0.12425554,-0.0499973,0.22473691,0,1
-0.06354055,-0.030021647,0.13782308,0,1
-0.05237344,0.08713722,-0.032460067,0,1
-0.15058924,0.17901231,-0.015524595,0,1
-0.12644307,0.11417583,0.08810609,0,1
-0.11994165,-0.10703658,0.13945436,0,1
-0.13666767,-0.12596132,0.05048796,0,1
-0.07632402,-0.016631145,-0.08208415,0,1
-0.04071152,0.06411267,-5.10E-06,0,1
-0.05916965,0.081383735,0.12169601,0,1
-0.096992224,0.05429559,0.24323855,0,1
-0.10100114,0.033705745,0.1738723,0,1
-0.066701695,0.040324207,-0.029159138,0,1
-0.09305923,0.052196495,-0.07592572,0,1
-0.111148,0.043847077,-0.04341979,0,1
-0.108892635,0.008193024,0.047716454,0,1
-0.09143872,0.002750407,0.06767764,0,1
-0.104047015,0.04981044,0.12985595,0,1
-0.12527026,0.03846171,0.14736345,0,1
-0.12171177,0.023315446,0.093698554,0,1
-0.09125192,0.039469723,0.017433794,0,1
-0.077565014,0.038372997,0.015757756,0,1
-0.08779221,0.004191404,0.036774796,0,1
-0.11122115,0.038613338,0.1001407,0,1
-0.11247347,0.045866035,0.120464586,0,1
-0.113477126,0.02879716,0.04898237,0,1
-0.11934504,0.032090195,0.023880312,0,1
-0.10929434,0.034233104,0.055004157,0,1
-0.0955297,0.02137949,0.10224286,0,1
-0.08588843,0.026974697,0.09616544,0,1
-0.0745305,0.05624105,0.040205132,0,1
-0.09330224,0.07581426,0.045823414,0,1
-0.098774366,0.09121134,0.07608809,0,1
-0.07299919,0.049259204,0.08055685,0,1
-0.074251845,0.027028097,0.06023379,0,1
-0.08349759,0.02492905,0.011939663,0,1
-0.07930506,0.027439121,0.005745507,0,1
-0.10084463,0.037549984,0.042779863,0,1
-0.11028664,0.025872238,0.033561695,0,1
-0.10117132,0.023458488,0.026660081,0,1
-0.09253088,0.056652084,0.053244557,0,1
-0.094263926,0.07140447,0.06882042,0,1
-0.09980314,0.05631067,0.056671955,0,1
-0.09780447,0.003073701,0.055243157,0,1
-0.08163552,0.004289638,0.06709565,0,1
-0.07144549,0.010587704,0.069421306,0,1
-0.08400865,0.006935129,0.05527159,0,1
-0.08631489,0.022630695,0.021011049,0,1
-0.07704888,0.04269601,0.044040825,0,1
-0.07285721,0.034115802,0.042675737,0,1
-0.09349858,0.01788903,0.038009964,0,1
-0.10540745,0.026883138,0.05961083,0,1
-0.09255372,0.022506725,0.064877875,0,1
-0.08423964,0.028033266,0.037574828,0,1
-0.0838952,0.027251255,0.04775289,0,1
-0.0839666,0.032460224,0.046927154,0,1
-0.08635383,0.037911426,0.04506965,0,1
-0.09999456,0.058974285,0.07346238,0,1
-0.087687485,0.051754016,0.07778581,0,1
-0.09213543,0.046219837,0.05867982,0,1
-0.10757704,0.061034214,0.039998718,0,1
-0.11494404,0.05422116,0.021367747,0,1
-0.10967963,0.01643658,0.020680599,0,1
-0.11263225,0.027243627,0.060384348,0,1
-0.11792857,0.04393007,0.06964399,0,1
-0.10986294,0.05482771,0.074262716,0,1
-0.093966976,0.045320526,0.068667285,0,1
-0.09179513,0.044261944,0.056391984,0,1
-0.08137037,0.03000451,0.037476666,0,1
-0.075612925,0.023473747,0.032185663,0,1
-0.08755194,0.018422134,0.04229113,0,1
-0.098158844,0.038132682,0.072783835,0,1
-0.07899051,0.076341674,0.19976562,0,1
-0.011225823,-0.045680035,0.08059662,0,1
-0.031866107,-0.051110275,-0.004606774,0,1
-0.087730356,-0.015702257,-0.03378855,0,1
-0.006355144,-0.11602499,-0.032685854,0,1
0.018657984,-0.15764906,-0.016402675,0,1
-0.13303074,0.14779285,0.12341314,0,1
-0.109997235,0.18932158,0.17515719,0,1
-0.031157995,0.046588924,0.12888536,0,1
-0.07892997,0.001837743,0.078451425,0,1
-0.14567414,0.047431026,0.16039957,0,1
-0.04159481,0.000611356,0.29109767,0,1
-0.003120944,-0.1926975,0.31084025,0,1
-0.21015084,-0.2758493,0.30646002,0,1
-0.42778105,0.20765503,0.33200505,0,1
0.03840951,0.9374219,0.13952632,0,1
0.51577324,0.80628306,-0.3070271,0,1
0.46873373,0.4451819,-0.116310395,0,1
0.09922788,-0.64269066,0.35790524,0,1
-0.032038987,-0.24928471,0.3450454,0,1
-0.75531083,0.19413485,0.6472638,0,1
-1.5440485,0.69616324,0.18071154,0,1
-1.3204796,0.5442124,0.040046297,0,1
-0.9037189,0.4721633,0.32695225,0,1
-0.8281532,0.67432034,0.38952395,0,1
-0.41506848,0.11161231,-0.103383265,0,1
0.16069517,-0.25126374,-0.591176,0,1
0.23686959,-0.03251657,-0.4962533,0,1
-0.2663158,0.14263535,-0.07562228,0,1
-0.47527015,0.086949356,0.051670562,0,1
-0.36484787,-0.44851026,-0.10813464,0,1
0.09584696,-0.8935568,-0.41942134,0,1
0.34139374,-0.88258666,-0.47084188,0,1
0.46475533,-0.7607128,-0.3759617,0,1
0.52462065,-0.6665746,-0.2617581,0,1
0.6362111,-0.4427329,-0.2902293,0,1
0.8503467,-0.19446287,-0.44617358,0,1
1.0011141,-0.05202015,-0.5010435,0,1
0.85506946,0.21393105,-0.38798156,0,1
0.47702417,0.26341727,-0.08315209,0,1
-0.24068576,0.04717164,0.24406953,0,1
-0.2658542,-0.45110807,-0.07972664,0,1
-0.07005772,-0.7577755,-0.22190033,0,1
-0.015170215,-1.06827,-0.40980425,0,1
0.004052069,-1.080806,-0.52457994,0,1
-0.121481284,-0.8898518,-0.7441096,0,1
-0.3861657,-0.38467908,-0.93351567,0,1
-0.49816364,-0.32473108,-0.89947593,0,1
-0.7962204,-0.08996973,-0.4276326,0,1
-0.8356376,-0.031824157,-0.13901442,0,1
-0.6354135,0.018745469,0.31262442,0,1
-0.62301296,0.5080329,0.24055916,0,1
-0.47142872,0.51523787,0.13270526,0,1
-0.4478449,0.46948728,0.15120114,0,1
-0.8076702,0.6959658,0.07792504,0,1
-1.6724514,1.43682,-0.18682082,0,1
-1.0233653,1.0148832,0.2134434,0,1
-0.8801822,1.2443649,0.050716378,0,1
0.9213114,1.6202024,0.66752267,0,1
1.335482,0.72019225,1.2751429,0,1
-0.42967835,0.06254109,0.46478736,0,1
-0.19459264,0.26216713,0.7569556,0,1
0.09594102,0.095956974,0.8827175,0,1
-0.047653493,-0.2145233,0.28780016,0,1
0.028311484,-0.14053439,0.1521791,0,1
0.2554059,-0.1232423,0.5155035,0,1
0.013394918,0.28753582,0.669608,0,1
-0.1687671,0.5475866,0.61503714,0,1
-0.6209943,0.9518158,0.40562415,0,1
-0.71138424,1.0125934,0.18030307,0,1
-1.0859836,0.73720074,-0.3141013,0,1
-1.2330539,0.74875534,-0.74738175,0,1
-0.9388011,0.7804269,-0.92445993,0,1
-0.3732597,0.7649536,-0.677863,0,1
-0.3751113,0.56485844,-0.41436228,0,1
-0.22609669,-0.5459119,-0.37839755,0,1
-0.08142976,-0.9176761,-0.047603466,0,1
-0.18034789,-0.7530289,0.3054894,0,1
0.15273432,-0.6378393,0.34942392,0,1
0.6301493,-0.67243105,0.002774394,0,1
1.3030562,-0.32703504,-0.48247078,0,1
0.81747806,-0.20509732,-0.5558316,0,1
0.35757232,-0.4094288,-0.84521025,0,1
0.14797923,-0.54950464,-1.7028152,0,1
-0.002177343,-0.22560345,-1.7905915,0,1
-0.19399437,0.83477104,-1.1710128,0,1
0.13937552,1.0333872,-0.6982212,0,1
0.3000418,1.1630182,-0.72794104,0,1
0.24976522,1.638259,-0.77049905,0,1
-0.04077162,1.794284,-0.7087657,0,1
-0.40851828,1.808364,-0.81162024,0,1
-0.01684944,1.5445873,-0.7192635,0,1
0.04174041,1.3564787,-0.50131524,0,1
-0.1045246,0.67644787,-0.1603052,0,1
-0.042742077,0.4403105,-0.10409614,0,1
-0.4740826,-0.096873336,-0.15788698,0,1
-1.244802,-1.0297368,-0.6380585,0,1
-1.4995184,-1.19928,-0.7670362,0,1
-0.4176765,-0.75348866,-0.027152054,0,1
-0.08047934,-0.52395904,0.8668707,0,1
0.34413853,-1.0045328,0.7224217,0,1
0.30735642,-1.3000469,0.7132089,0,1
0.16970098,-1.0905905,0.9100027,0,1
-0.326427,-0.507758,1.0177988,0,1
-0.6417304,-0.13503437,1.2339222,0,1
-0.520854,0.30171707,1.446445,0,1
0.17972314,-0.03393638,0.6682833,0,1
0.30917567,-0.45397663,0.33506456,0,1
0.007884972,-0.43482494,0.35133854,0,1
-0.24616069,0.094564535,0.49263442,0,1
-0.5485089,0.6152669,0.3579037,0,1
-0.9764746,0.7745239,0.4313201,0,1
-1.2600571,0.9528133,0.43768722,0,1
-1.9328189,0.33735177,-0.13317403,0,1
-2.3169239,-0.06721695,-0.14248653,0,1
-3.1443202,0.012631464,0.57027173,0,1
-2.7514431,0.21321394,0.18346716,0,1
-2.2748785,0.36077875,-0.2662568,0,1
-1.1328471,0.77833563,-0.34494326,0,1
0.20926768,1.346285,-0.34329525,0,1
1.2340212,1.0480605,0.064990655,0,1
-0.7277566,-2.2500618,0.035427682,0,1
-1.8536774,-3.4655027,0.011597431,0,1
-1.8303168,-2.0077136,0.6595912,0,1
-1.0468552,-0.6907586,1.2140728,0,1
0.3929917,-1.2081537,0.7664245,0,1
-0.8199131,-3.7636642,0.23726188,0,1
-1.9682227,-4.745426,0.85696626,0,1
-0.78492326,-2.9141088,1.8156562,0,1
2.107219,1.2755427,2.0260677,0,1
6.680372,6.3394127,0.49069798,0,1
5.5410943,0.92133677,-3.2062733,0,1
4.524619,-0.18709408,-2.292975,0,1
2.2634368,-0.5938052,0.6279471,0,1
1.724792,-1.2355042,0.808589,0,1
2.064133,-2.156041,0.20065093,0,1
1.885535,-0.9303836,0.70064527,0,1
1.5167203,-0.11964121,0.49551374,0,1
1.218188,0.39466068,-1.9640179,0,1
1.1724652,0.12940452,-3.037722,0,1
1.1512399,-0.09397556,-2.7808661,0,1
1.104005,0.36862552,-0.96632993,0,1
1.1590223,0.21886161,-0.1447299,0,1
0.954837,-0.5015382,0.42154023,0,1
0.7509359,-0.50801754,0.24029675,0,1
0.94900423,-0.105719596,-0.17075345,0,1
0.7384907,-0.29306048,-0.9504562,0,1
0.3551181,-0.22615652,-1.4180033,0,1
0.12541597,0.75995237,-1.8466595,0,1
0.39064062,1.3471917,-1.5145547,0,1
0.6303087,1.0356723,-0.042538237,0,1
-0.002973449,-0.43646717,0.31709635,0,1
-0.41152516,-0.7257825,-0.16652057,0,1
-0.82732093,-0.33554855,-0.5162125,0,1
-0.8241689,-0.20306782,0.038244974,0,1
-0.93691,-0.35565934,1.097681,0,1
-1.284679,-0.48192683,0.9026486,0,1
-1.3938398,-0.537322,0.7194704,0,1
-1.3286601,-0.61805534,0.62400675,0,1
-1.1140449,-0.27927202,0.5337455,0,1
-0.75496805,0.81194127,0.13810155,0,1
-1.1311611,0.74460983,-0.2615549,0,1
-1.3736,0.3821993,-0.17403142,0,1
-1.6333896,-0.28375527,0.5607068,0,1
-1.4521345,-0.43194094,0.9611521,0,1
-0.75277376,-0.34739378,1.3795769,0,1
-0.45728633,-0.40942466,1.0087048,0,1
-0.39011878,-0.46790212,0.6963401,0,1
0.04895593,0.15188406,-0.15929209,0,1
0.08784364,0.49999136,-0.6082479,0,1
-0.2091109,0.24525253,-0.5570898,0,1
0.04706256,0.31808472,-0.18686017,0,1
0.0357173,0.35366437,-0.3031727,0,1
-0.23465583,0.029597173,-0.61144495,0,1
-0.21564883,-0.13419165,-0.62564284,0,1
0.047550857,-0.09964575,-0.6843988,0,1
-0.017844524,-0.041240834,-0.7783213,0,1
-0.09583315,-0.04807866,-0.64668494,0,1
-0.0058681,-0.03830721,-0.07769806,0,1
0.07727829,0.04838947,0.13709496,0,1
0.16772091,0.13487157,0.4233676,0,1
0.06556336,-0.27620783,0.62205017,0,1
-0.007810086,-0.26111597,0.5165826,0,1
-0.14685754,-0.006896025,-0.011816024,0,1
-0.30020356,-0.2738791,-0.15298909,0,1
-0.5578221,-1.0993739,-0.121912956,0,1
-0.32295835,-0.6816894,-0.31372926,0,1
-0.13832106,-0.025554726,-0.34913194,0,1
-0.096337795,1.2387364,0.35208988,0,1
-0.17037706,1.1265099,0.74921656,0,1
-0.020413194,0.46779552,0.5523318,0,1
0.12836748,0.33432114,0.4690075,0,1
0.08152228,0.1285201,0.37500396,0,1
0.13096057,-0.32042128,-0.13826561,0,1
0.29378012,-0.22235781,-0.18656261,0,1
0.4549448,0.12312798,0.13598613,0,1
0.37265208,-0.0946293,-0.033296835,0,1
0.25607345,-0.23495872,-0.2721124,0,1
0.15904263,-0.24307735,-0.27843547,0,1
0.26494852,-0.086598426,-0.17027992,0,1
0.38298857,0.24040318,-0.20033887,0,1
0.34071952,0.23983191,-0.26578444,0,1
0.3102328,0.1015005,-0.1556807,0,1
0.24219139,-0.11479952,-0.07758499,0,1
0.20184073,-0.094747595,-0.23375787,0,1
0.05370993,-0.09270012,-0.57438827,0,1
0.02386697,-0.11823188,-0.49430305,0,1
0.0503002,0.005935583,-0.49283168,0,1
0.050424688,0.09989727,-0.7209154,0,1
0.005442381,0.01498302,-0.8967607,0,1
-0.15798354,-0.055836003,-1.5187327,0,1
0.09617007,0.046057444,-1.4763334,0,1
0.30489177,0.06725111,-0.62392586,0,1
0.18700811,0.066901565,1.9527142,0,1
-0.13703796,0.25581607,3.1003575,0,1
-0.7549094,0.53372365,3.978508,0,1
-0.86758304,-0.08194597,2.407379,0,1
-0.51535636,-0.3634069,1.5441248,0,1
0.2541778,-0.27117813,0.796528,0,1
0.5036115,-0.0646905,0.4910816,0,1
1.2180178,-0.024211928,-0.34993628,0,1
0.9978754,-0.3019277,-0.66860074,0,1
0.48253855,0.031337682,-0.37892893,0,1
-0.30595446,1.4688399,0.5863156,0,1
-0.54032457,1.7144092,0.7942494,0,1
-1.4815488,0.5080062,0.41039854,0,1
-2.1475081,-0.57063586,0.30130407,0,1
-1.9266698,-0.83235466,0.20336632,0,1
-1.9443146,-1.4494811,0.06703294,0,1
-2.055167,-2.0064328,0.342721,0,1
-2.057462,-2.2975533,0.76847833,0,1
-1.2380886,-1.0510826,0.88389665,0,1
-0.3030816,-0.6253137,0.6434407,0,1
1.3522801,0.8162355,-1.3013345,0,1
1.0380751,1.1726377,-2.0363908,0,1
-0.6556035,0.30004385,-1.3421059,0,1
-1.5723915,0.6030647,0.7227288,0,1
-1.8929203,0.14434734,0.9091059,0,1
-1.8403574,-0.44781393,0.9200558,0,1
-1.3692946,0.4875091,1.58564,0,1
-0.4329342,0.1683609,1.0774152,0,1
-0.41204152,-0.8245421,0.21035533,1,0
-0.10004109,-0.57602787,0.3208048,1,0
0.060760826,-0.96461594,0.14749242,1,0
-0.2648938,-1.0979749,0.106628284,1,0
-0.9193477,-0.98051834,0.81589615,1,0
-0.37737513,-1.1458464,0.93479,1,0
-0.13613644,-1.0025673,0.7959556,1,0
-0.15611777,-0.26063818,0.5311093,1,0
-0.08168331,-0.152935,0.21996912,1,0
-0.29231548,-0.35189536,-0.02652563,1,0
-0.7689394,-0.73271465,0.35366863,1,0
-0.7037938,-0.58734417,0.48760992,1,0
-0.6552651,-0.16080658,0.5527913,1,0
-0.66057336,-0.26023576,0.32450813,1,0
-0.42513263,-0.25042826,-0.12683748,1,0
-0.23414285,0.5658217,-0.059497792,1,0
-0.17028451,0.802869,0.38561195,1,0
-0.110957205,0.27539265,0.46668568,1,0
0.24577542,0.38339624,0.16746373,1,0
0.86714524,0.9620983,0.24909061,1,0
0.4916392,0.18610206,0.6793705,1,0
0.5713757,0.10031524,0.67860544,1,0
1.1137811,0.18880093,0.39573297,1,0
1.1580003,0.024575312,0.29918993,1,0
1.1438286,0.26877803,0.66580904,1,0
1.2794093,0.7235463,1.0840839,1,0
1.4103307,0.66461015,0.77135515,1,0
1.559491,0.39690796,0.2994079,1,0
1.605885,0.3359634,0.44115847,1,0
1.4927572,0.520447,0.7538421,1,0
0.99072,0.4761527,1.1363034,1,0
0.6029085,0.2649176,1.0485878,1,0
0.4817597,0.066266134,0.33185464,1,0
0.1989884,-0.3064213,-0.033321567,1,0
-0.830985,-1.1940215,-0.40508193,1,0
-0.58367276,-1.9892734,-0.48706767,1,0
-0.6813871,-2.5851543,-0.45267934,1,0
-1.2024258,-3.1404605,-0.4166637,1,0
-1.0668639,-2.9556768,-0.3567232,1,0
-0.98147213,-2.703396,-0.07048884,1,0
-1.2197576,-2.5395901,0.38015056,1,0
-1.1526389,-2.6187127,0.73457587,1,0
-0.9482977,-1.0058377,-0.72822374,1,0
-0.89783466,1.0080019,-2.888524,1,0
-0.8124286,4.256307,-5.159478,1,0
-0.08356586,5.9277153,-3.9111676,1,0
-0.25921285,5.9896717,-3.4075713,1,0
-0.86929214,5.169572,-2.2652903,1,0
-1.5376354,4.420038,-1.4018542,1,0
-2.884008,3.2717311,0.9745588,1,0
-2.6507554,1.7337881,1.955186,1,0
-2.083078,0.85036325,2.3448753,1,0
-0.11194262,-0.48056656,2.7216465,1,0
0.9155365,-1.5404422,2.2743886,1,0
1.6938412,-3.607785,1.6450782,1,0
0.6243822,-3.0227473,1.088356,1,0
0.19587097,-2.3578422,0.4284197,1,0
-0.23822892,-0.33962542,-0.18430604,1,0
-0.034692008,0.19168082,-0.660826,1,0
0.4537521,0.54042405,-1.9904727,1,0
-0.43584925,1.5225189,-2.5252862,1,0
-0.88610727,1.848129,-2.3642526,1,0
-1.3578769,1.0397221,-2.3066304,1,0
-1.7627839,0.41293392,-2.4193118,1,0
-2.8913624,-0.09274429,-2.0319526,1,0
-4.3153496,-0.19426182,-0.87137157,1,0
-4.36205,-0.25647557,-0.10504268,1,0
-3.322607,-0.77410233,0.21055828,1,0
-2.8285677,-0.8543417,0.03142294,1,0
-1.5163883,-0.65578,-0.42640662,1,0
-0.49797103,-0.6059354,-1.1574948,1,0
-0.3108139,-0.07924001,-0.84125054,1,0
0.039284226,1.3366348,0.28645274,1,0
0.4932978,1.4877007,0.5294428,1,0
0.96260583,1.177211,0.83999467,1,0
-0.14236574,0.82857823,0.568943,1,0
-0.07180804,0.18268499,0.39204955,1,0
1.2502835,-1.0925188,0.8301362,1,0
1.8923354,-1.2632188,1.2171044,1,0
1.8793106,-0.6678131,1.1508013,1,0
0.28740552,0.42628586,0.32666263,1,0
-0.075862356,0.8296157,0.10758432,1,0
0.080541745,0.6128646,0.4714367,1,0
-0.025635783,0.36061302,0.60918456,1,0
-0.82035285,0.19644743,0.24324328,1,0
-0.99308264,-0.0717602,0.012095237,1,0
-0.78645563,-0.23136997,0.25866628,1,0
-0.34639198,-0.3195666,0.79948175,1,0
-0.21453232,-0.26218787,0.7114253,1,0
-0.20468886,0.024853736,0.16835669,1,0
-0.34798712,0.18366621,-0.15241012,1,0
-0.32799742,0.12251374,-0.20291267,1,0
0.048733942,-0.26184186,-0.2811477,1,0
0.38294756,-0.4553367,-0.39049736,1,0
0.88857573,-0.5061905,-0.64801514,1,0
0.4044939,-0.031150972,-0.8856239,1,0
0.09817352,0.16458876,-0.98118085,1,0
0.36349732,0.06958279,-0.9185422,1,0
0.6010989,-0.07489123,-0.80144846,1,0
0.5288061,-0.24323569,-0.49849936,1,0
0.36102524,-0.24844846,-0.36854342,1,0
0.2701879,-0.178382,-0.3896868,1,0
0.1342577,0.012080115,-0.45777285,1,0
0.11213817,0.08677665,-0.50279784,1,0
0.10993624,0.22467987,-0.6040199,1,0
0.15816006,0.04107754,-0.46373495,1,0
0.07502445,-0.14663512,-0.2991459,1,0
-0.12671854,-0.2026406,-0.15534045,1,0
-0.09434216,-0.1450768,-0.14706278,1,0
-0.000705584,0.037653916,-0.052601174,1,0
-0.17814258,0.24837305,-0.04393822,1,0
-0.23577152,0.26233768,-0.096325584,1,0
-0.03725073,0.091056824,-0.039548855,1,0
0.04321282,0.02846434,0.103311345,1,0
0.011036427,-0.01680084,0.23500752,1,0
0.12889461,-0.21454525,0.12719694,1,0
0.1662775,-0.2747345,0.122360386,1,0
0.07896511,-0.18708609,0.14946288,1,0
-0.032279275,-0.0393791,0.12837519,0,1
-0.2689753,0.19248872,0.13325976,0,1
-0.33511794,0.15448003,0.19316751,0,1
-0.29480073,0.07874683,0.18699872,0,1
-0.23406333,-0.012394881,0.17256038,0,1
-0.2295263,-0.030668234,0.18185307,0,1
-0.04880577,-0.044926636,0.058800824,0,1
0.10997611,0.04806327,-0.08985635,0,1
0.039900344,0.11620045,-0.07021959,0,1
0.05631756,0.016177189,0.041586906,0,1
0.13026851,-0.08171462,0.07578696,0,1
0.04806947,-0.08466816,0.04700393,0,1
-0.11560422,-0.008470537,0.007314797,0,1
-0.1339803,0.006492619,0.032904632,0,1
-0.09214164,0.009530079,0.06816744,0,1
-0.04849096,0.022252096,0.068392076,0,1
-0.026405558,0.03824236,0.085730396,0,1
-0.01475627,0.01460077,0.0807914,0,1
-0.00309964,-0.029565806,0.053884454,0,1
0.024103044,-0.07187845,-0.030953638,0,1
0.02024763,-0.054998416,-0.060808904,0,1
-0.002839464,-0.036211975,-0.023006836,0,1
-0.005668762,0.028300293,0.017542865,0,1
-0.01299428,0.10440731,-0.0641418,0,1
0.011877246,0.29657355,-0.60229653,0,1
0.003785014,0.3869351,-1.0217266,0,1
0.091239676,0.55183476,-1.9477097,0,1
0.56006306,0.047222655,-2.5471375,0,1
1.0472124,-0.5353713,-2.41681,0,1
1.7296427,-1.5482087,-1.4417825,0,1
1.5090121,-1.6523308,-1.0754523,0,1
0.6817235,-1.6615652,-0.89224267,0,1
0.17076027,-1.2569754,-0.57871413,0,1
-0.084006704,-0.73830706,0.001903906,0,1
-0.43546802,0.11885572,1.3445518,0,1
-0.5659738,0.27674037,1.6187894,0,1
-0.88028777,0.34768802,1.582832,0,1
-0.85461354,0.27295038,1.046671,0,1
-0.65462226,0.19265851,0.4354823,0,1
-0.12760334,-0.24288946,-0.14264816,0,1
-0.11984628,-0.19032,0.22628693,0,1
-0.20869274,0.29283255,0.779522,0,1
0.11151776,0.25909436,0.5089599,0,1
0.03515475,0.20351613,0.48482403,0,1
-0.5056608,0.2911998,0.52144563,0,1
-0.6404862,0.2184325,0.30029285,0,1
-0.8651105,0.19575317,0.3215922,0,1
-1.4059701,0.74322623,0.9317625,0,1
-1.473531,1.0037081,0.78257066,0,1
-1.2317271,1.3480933,0.6373055,0,1
-1.0311168,1.2650731,0.6572471,0,1
-0.7279157,0.71728903,0.16118349,0,1
-0.70905435,0.4771396,0.38158414,0,1
-0.6407578,0.3651601,0.6204336,0,1
-0.09881734,-0.11280922,-0.09800582,0,1
0.17444086,-0.21595488,-0.4364895,0,1
0.5029023,-0.20475878,-0.6630433,0,1
0.75527024,-0.23799817,-0.7945701,0,1
0.6591411,-0.21939291,-0.6761767,0,1
0.45232487,-0.31481373,-0.6189905,0,1
0.34817263,-0.43795317,-0.63038427,0,1
0.15827751,-0.6696903,-0.54589164,0,1
0.24603617,-0.5146543,-0.51732224,0,1
0.18844685,-0.3424445,-0.38370752,0,1
-0.031655744,-0.16517548,-0.15845574,0,1
0.029383602,-0.28804308,-0.2360707,0,1
-0.22552326,-0.37039292,-0.428768,0,1
-0.7482835,-0.24168411,-0.5538139,0,1
-0.7334162,-0.33034626,-0.5976553,0,1
-0.7347518,0.13968365,-0.46670285,0,1
-0.64273477,0.71982765,-0.33234283,0,1
1.0461777,0.99734414,0.043742657,0,1
-0.050551217,0.35743627,0.36454388,0,1
-1.0629599,0.37439454,0.5828456,0,1
-0.123630665,0.14473255,0.31451467,0,1
0.41888618,0.19114028,0.37414828,0,1
-0.12660351,0.4456341,0.7738683,0,1
-0.04559221,0.19142447,0.45275497,0,1
0.007268645,0.07739073,0.3072387,0,1
-0.46151397,-0.08733458,0.37975237,0,1
-0.46139848,-0.21999072,0.28620592,0,1
-0.095215276,-0.05488295,0.33428946,0,1
-0.12628233,0.5134059,0.4464284,0,1
-0.18603827,0.6214782,0.34242582,0,1
-0.3925657,0.6278344,-0.028648488,0,1
-0.62368697,0.6253329,-0.10376928,0,1
-0.9086858,0.57584095,-0.17762399,0,1
-1.1392446,0.65763086,-0.4357714,0,1
-1.0994601,0.65011686,-0.6662814,0,1
-0.29141736,0.65132695,-1.2664856,0,1
0.15296422,0.7307337,-1.4653904,0,1
0.3988742,0.764921,-1.5546166,0,1
0.5924783,1.0292691,-1.1955411,0,1
0.86497414,1.1710043,-0.9775228,0,1
0.6290655,1.4439421,-0.477956,0,1
0.09563353,1.6733773,-0.012456537,0,1
-1.0502357,2.112325,0.5632076,0,1
-1.3498454,1.8218987,-0.14694618,0,1
-0.75936973,1.3739681,-0.713879,0,1
0.42139596,0.18528439,-1.3428636,0,1
0.3683322,-0.49852496,-1.4347763,0,1
-0.3015716,-1.3778127,-1.23631,0,1
-0.8950429,-1.3226198,-0.9654138,0,1
-1.001317,-1.218796,-0.8484905,0,1
-0.608482,-1.3696883,-0.36773995,0,1
-0.23587027,-1.332265,-0.1519441,0,1
0.4878086,-1.3891716,0.40382057,0,1
1.41158,-1.4551781,0.95182824,0,1
1.5093906,-1.4139279,1.1065477,0,1
0.9741609,-0.9880875,1.4908109,0,1
0.6784222,-0.68432117,1.6844579,0,1
0.25075066,-0.15399715,1.5479304,0,1
0.24129683,0.18219486,0.7148461,0,1
0.27699256,0.51312274,0.5405697,0,1
0.28670377,1.3327305,0.6129494,0,1
0.39612278,1.513678,0.54594815,0,1
0.5568597,0.9363347,-0.089612134,0,1
0.08064885,0.01652428,-0.21666527,0,1
-0.3411036,-0.18732454,0.06288773,0,1
-0.9279298,-0.14604852,0.32516137,0,1
-0.915051,0.17916112,0.2922828,0,1
-0.79405123,0.87253296,0.17756909,0,1
-1.4084076,0.5892383,0.5284275,0,1
-1.8017468,0.15686522,0.69011456,0,1
-1.7247759,-0.053033747,0.6773571,0,1
-1.2172104,-0.000177312,0.5234838,0,1
-0.18774906,-0.3529778,-0.21536864,0,1
-0.14357246,-0.5758544,-0.48639122,0,1
-0.6914269,-0.8059951,-0.07794157,0,1
-0.9440953,-0.78079134,0.45657727,0,1
-0.45973963,-0.42414474,0.43905672,0,1
-0.045287974,-0.018531771,0.17442131,0,1
-0.9840659,-0.90112704,-0.075563915,0,1
-1.3392423,-1.2398025,-0.03233117,0,1
-1.570224,-0.9428045,-0.085063525,0,1
-1.7495313,-1.1949208,-0.36055216,0,1
-1.3317469,-2.7176795,-0.6939157,0,1
0.40078247,-0.29257292,0.4830127,0,1
0.7977408,2.1472173,0.90612227,0,1
2.0172966,3.1128218,-1.2424713,0,1
3.2196393,2.142518,-2.1167142,0,1
2.1427238,-0.2680531,-0.31717652,0,1
-1.3309118,-1.4887457,0.5758645,0,1
-1.9724054,-1.4998103,0.2865125,0,1
-0.71022457,-0.33757117,0.136323,0,1
0.07673582,-0.12370014,0.059313007,0,1
0.05477141,-0.6542893,-0.001809497,0,1
-0.66386473,-1.4232541,0.21888542,0,1
-0.8570935,-1.8173215,0.06099988,0,1
-0.79127824,-1.7296098,-0.52411914,0,1
-0.5359025,-1.4461081,-0.78040624,0,1
0.5651005,-0.20009916,-0.77569896,0,1
0.6914336,1.3173659,0.2992932,0,1
0.6329097,1.5083002,0.29876795,0,1
0.9323925,1.7055856,-0.52415615,0,1
0.8346015,1.2300243,-0.9167537,0,1
0.48355603,-0.51193833,-1.1231136,0,1
0.8002325,-0.5247833,-0.65476954,0,1
0.9393475,-0.32347026,-0.6915093,0,1
0.5388074,-0.56783605,-1.0290366,0,1
0.24282026,-0.6054508,-0.8332061,0,1
0.106908165,0.019104004,-0.01751814,0,1
0.26710358,0.30268195,-0.03444831,0,1
0.19638658,0.11968514,-0.28397438,0,1
-0.19972786,-0.20157534,-0.1867295,0,1
-0.22484197,-0.124431625,0.04046657,0,1
0.16686347,0.14828399,0.091896966,0,1
0.2148524,-0.032382045,-0.19196577,0,1
0.14298025,-0.10211949,-0.18738937,0,1
0.043345153,-0.009588242,0.000170503,0,1
0.02225257,0.03334524,0.08149027,0,1
-0.009133138,0.03610423,0.133199,0,1
0.0502524,0.05729774,0.14764248,0,1
0.0620242,0.14770226,0.15248735,0,1
0.088830695,0.17320254,0.095361374,0,1
0.118721336,0.058168422,0.011213972,0,1
0.24236959,-0.08449653,-0.15318613,0,1
0.26888984,0.00077627,-0.14606407,0,1
0.20433256,-0.021483434,-0.07807891,0,1
-0.06734872,-0.005826907,0.2496528,0,1
-0.2682714,0.03261288,0.44048142,0,1
-0.59882873,0.12811099,0.6011244,0,1
-0.75181496,0.10643395,0.44752228,0,1
-0.7800931,0.015240727,0.39119497,0,1
-0.532931,-0.1706104,0.34535137,0,1
-0.18518609,-0.096777886,0.2701703,0,1
0.33645606,0.11919595,-0.036076315,0,1
-0.114555106,0.07246584,-0.3548878,0,1
-0.4318286,0.004202778,-0.32582733,0,1
-0.6800598,-0.029860543,-0.16886908,0,1
-0.54644805,0.024944277,-0.122711845,0,1
-0.303949,0.026455857,-0.11504004,0,1
-0.3825152,-0.11267478,-0.25221282,0,1
-0.40054706,-0.15885742,-0.2631665,0,1
-0.30223662,-0.01882269,-0.076556,0,1
-0.2434411,0.07043077,0.04616597,0,1
-0.21422254,0.08359626,0.12927608,0,1
-0.21443728,0.07420349,-0.026598146,0,1
-0.16264418,0.06091117,-0.07634986,0,1
-0.077080384,0.003252029,-0.000375668,0,1
-0.07529202,0.032520313,0.08650094,0,1
-0.12036305,0.07990555,0.16493322,0,1
-0.10377967,0.042123817,0.105270684,0,1
-0.094012946,0.036067974,0.056991734,0,1
-0.07688144,0.00308324,0.067027226,0,1
-0.05454749,-0.06344318,0.0795094,0,1
-0.006567022,-0.09879687,-0.045454547,0,1
0.15073253,-0.18163975,-0.3247234,0,1
0.23066552,-0.19255172,-0.42907238,0,1
0.26475796,-0.04920872,-0.43135116,0,1
0.2061408,0.016461322,-0.31287327,0,1
-0.04547684,-0.000738155,-0.05620967,0,1
-0.11410251,-0.002735138,0.014764789,0,1
-0.07062061,0.047734268,0.010729996,0,1
-0.030395849,0.060503956,-0.057297066,0,1
-0.017191952,0.05585097,-0.094962716,0,1
-0.028571483,0.045895558,-0.121676266,0,1
-0.08344172,-0.038388267,-0.05456865,0,1
-0.107336916,-0.037083637,-0.034976937,0,1
-0.11487034,-0.006484031,0.022425905,0,1
-0.09314451,0.010335928,0.034295306,0,1
-0.06275233,0.013901712,0.008197176,0,1
-0.038844373,-0.004112249,-0.023015471,0,1
-0.00660882,-0.000843061,-0.07280855,0,1
0.1809837,0.050652493,-0.12988529,0,1
0.26561797,0.0640869,-0.14865057,0,1
0.380383,0.13747592,-0.3674839,0,1
0.5434743,0.017535096,-0.699485,0,1
0.45267463,-0.17811026,-0.7325536,0,1
0.031300724,-0.2294485,-0.85037196,0,1
-0.1168974,-0.13451886,-1.2420938,0,1
-0.18344767,-0.021396952,-1.7354099,0,1
0.14289126,0.666957,0.47552016,0,1
-0.1694355,0.7070649,1.2542664,0,1
-2.0860972,-1.1326436,1.3770225,0,1
-2.657712,-2.11965,1.7945248,0,1
-2.0562239,-2.5842085,1.6450933,0,1
-0.4102606,-3.4707098,-0.08041046,0,1
0.7397022,-3.8038492,-0.2687547,0,1
2.1232862,-2.264529,-0.2216811,0,1
1.4015024,-0.9672824,-0.24513456,0,1
-0.46907824,1.9574924,1.2637348,0,1
-1.122687,4.812147,2.7024627,0,1
-0.6663172,5.9903135,2.188994,0,1
0.15276882,6.1157684,-0.23740348,0,1
0.40939784,4.8931575,-1.0577768,0,1
0.6486244,2.3960438,-1.3651625,0,1
-0.074108765,1.1675205,-0.5047814,0,1
-0.57681036,0.6277925,0.432701,0,1
-0.79960763,-2.4263427,0.7003205,0,1
-0.4228519,-4.2169967,-0.14929219,0,1
0.5645121,-5.7044473,-1.4114634,0,1
0.86900586,-4.0939198,-1.6864618,0,1
0.42599145,-2.382708,-1.1910974,0,1
-0.78323776,0.670417,0.6454847,0,1
-0.7377958,1.3869565,0.41941056,0,1
-0.38367236,1.9655409,-1.0186598,0,1
-1.2271525,4.885824,2.831496,0,1
-2.4826424,4.425461,4.013767,0,1
-9.116598,6.478342,0.121693276,0,1
-14.933124,14.294877,-8.178192,0,1
-2.0946143,6.229974,-4.8620353,0,1
3.1141667,-4.106284,-3.3608456,0,1
3.1860363,-5.926453,-5.016702,0,1
2.1900072,-7.3029766,-5.7978153,0,1
2.2716885,-5.366747,-5.20862,0,1
0.67193055,2.201599,2.0771625,0,1
-6.117565,1.6936481,8.481254,0,1
-3.9163754,2.2479317,5.923687,0,1
1.7901242,4.653692,-1.1131529,0,1
1.8989568,4.285679,-2.759018,0,1
-0.11708175,3.979813,-0.37206268,0,1
-1.9616154,3.4449222,1.3995745,0,1
-2.3773246,1.8604387,0.8783214,0,1
-2.083537,-2.1076171,-0.13118358,0,1
-1.565478,-3.6521177,-0.15167962,0,1
-0.12775269,-5.2424703,-0.43362403,0,1
2.0794718,-3.461732,-2.2861362,0,1
2.3844802,-1.9017937,-2.915182,0,1
2.1491783,0.003111084,0.89854413,0,1
1.7134548,1.008247,2.272466,0,1
-1.9323117,1.6336637,1.5727749,0,1
-2.4203007,3.1848638,1.0088444,0,1
-1.8404471,4.0133996,0.9944408,0,1
-2.1388423,3.3350244,0.6571506,0,1
-1.6650422,1.3972731,-0.17466871,0,1
1.3463022,-3.8239906,-1.8765621,0,1
3.3772724,-7.062876,-2.5684416,0,1
3.609839,-7.9802003,-2.863374,0,1
4.909446,-4.4340467,-1.6985241,0,1
4.025001,0.5730813,0.8504577,0,1
-6.0274324,4.955353,3.1914234,0,1
-7.3518124,3.628468,0.1763236,0,1
-5.606761,4.5986533,0.72444236,0,1
-2.5488257,4.6589446,0.7982061,0,1
-1.086859,4.20824,0.28245556,0,1
-0.35862967,1.294033,-0.49278167,0,1
0.54163253,-2.8852196,-0.89092875,0,1
1.0672868,-4.22513,-0.57891065,0,1
1.5396956,-5.8687496,0.10259756,0,1
1.9555129,-6.3065567,-0.17265697,0,1
0.9669286,-4.525766,-2.6551657,0,1
-2.169838,3.2911582,0.15668626,0,1
-2.909317,7.0782914,3.376799,0,1
-4.4108925,5.330355,1.5008099,0,1
-3.0617182,3.4708753,0.25648504,0,1
1.2709813,1.405659,0.37057912,0,1
1.0965402,-1.8452394,-0.014834838,0,1
1.4467,-4.3941584,-0.9105429,0,1
3.782094,-9.560746,-2.7084868,0,1
4.940199,-9.478245,-2.7403748,0,1
3.7290158,0.35516655,0.07220004,0,1
-6.5722733,7.10471,2.1524432,0,1
-8.507012,6.381323,1.0845952,0,1
-3.6362548,4.9622655,0.6343464,0,1
-2.4090977,4.5036254,0.473604,0,1
-1.9537655,3.212812,-0.00851678,0,1
-1.2726293,0.95310885,-0.1774282,0,1
-0.5181223,-0.9051458,-0.40941122,0,1
1.0074596,-3.93021,-0.055561956,0,1
1.2455915,-4.7116237,0.40498066,0,1
1.2475787,-5.348221,0.21577454,0,1
2.6747463,-3.6233737,-1.6457541,0,1
2.1424375,-2.89116,-2.1450202,0,1
-1.1656003,2.5571952,1.3642678,0,1
-2.6448896,5.43332,1.8508456,0,1
-5.734764,5.203687,0.040483035,0,1
-2.8417919,3.3952498,0.5164551,0,1
-0.92514336,1.8639778,0.48916164,0,1
2.0643234,-2.730193,-0.735283,0,1
3.1201866,-4.936534,-1.3332824,0,1
4.0556426,-7.0943303,-1.8805972,0,1
5.1754975,-4.4504027,-1.709424,0,1
4.811599,-0.62190825,-0.31601852,0,1
-3.5022275,4.016343,2.3324702,0,1
-7.193601,3.6707416,1.3578074,0,1
-5.8955274,4.981708,0.13497266,0,1
-3.2461355,4.9664655,0.404084,0,1
-2.4418921,3.8239532,0.0598021,0,1
-1.3508378,2.4420836,-0.093663,0,1
-0.6777412,0.74387646,-0.34850603,0,1
0.7163078,-3.9994664,-0.23817515,0,1
0.05401423,-6.090374,0.31101513,0,1
-0.16801995,-5.4065075,0.3453461,0,1
2.88016,-2.377807,-0.6512884,0,1
3.481346,-2.2631435,-2.2042975,0,1
10.855192,7.179675,-17.757,0,1
-33.22784,17.533041,-58.752106,0,1
-36.856716,12.179096,-35.483803,0,1
-5.4081626,3.5676258,2.4484775,0,1
-1.6480076,1.0413686,0.010652535,0,1
0.75505745,-2.0136786,-0.81504816,0,1
3.4491198,-6.1854343,-1.4947112,0,1
3.9383862,-8.255226,-1.8844422,0,1
5.139975,-5.7491918,-1.6110348,0,1
5.2771287,-0.14085011,-0.70729756,0,1
-2.4595497,5.801356,1.3007982,0,1
-6.879665,3.4477017,-0.6854743,0,1
-5.629271,4.4275947,-0.6501101,0,1
-3.8528073,4.0580287,-0.7908491,0,1
-3.3107007,2.8830214,-1.1165944,0,1
-1.8023968,1.2225199,-0.7760055,0,1
-0.24547729,-2.1785028,-0.43337443,0,1
0.28665859,-3.745524,-0.4000649,0,1
0.5257604,-4.6238375,-0.17312814,0,1
0.3319775,-3.9457512,0.06108467,0,1
0.5485123,-2.3139017,-0.17573561,0,1
1.1648858,-3.1677394,-2.7073998,0,1
0.51627105,-2.6148326,-2.5202684,0,1
-0.2654152,3.0162482,0.26258892,0,1
-1.8480297,3.7309146,-0.4369884,0,1
-4.450613,4.7678137,-0.8992108,0,1
-1.6111591,4.142073,-0.3835074,0,1
-1.7504287,2.9763415,-0.40867618,0,1
-1.1550452,-0.82340074,-0.5859417,0,1
0.26999098,-3.353939,-0.48255154,0,1
2.8915808,-6.328203,-0.7278981,0,1
6.025051,-5.7901883,-1.7576717,0,1
7.4771457,-3.1153708,-0.97761184,0,1
2.1544282,2.334598,1.7631018,0,1
-3.9775698,2.7740512,1.3395027,0,1
-7.677908,2.9754372,-0.95905155,0,1
-5.7559185,4.9814534,-0.64555675,0,1
-5.047813,3.8433745,-1.2332479,0,1
-3.4205747,2.481575,-0.9715355,0,1
-2.0224648,1.6231586,-0.48389116,0,1
0.79871535,-2.1502135,0.27164814,0,1
0.4306172,-4.888184,0.42671022,0,1
0.11283951,-5.180023,0.29385284,0,1
1.9696171,-4.16852,0.06610358,0,1
3.2118998,-3.9991403,-0.6769466,0,1
-0.3162521,-2.9473035,-2.8092847,0,1
-2.3584635,7.259487,0.09381986,0,1
-3.528918,7.332947,-0.2340036,0,1
-4.336524,3.6380932,-1.3186737,0,1
-2.278024,2.2097492,-0.8833712,0,1
1.8129076,-0.76225203,-0.36724153,0,1
5.1768,-5.5319624,-1.0952374,0,1
5.8083544,-7.851194,-1.8668311,0,1
6.88993,-6.446563,-1.8116508,0,1
5.1872077,-2.002722,-0.3114855,0,1
-6.2481003,4.530977,0.95661855,0,1
-11.141342,5.560897,-0.5170893,0,1
-8.754007,5.5539665,-0.75240636,0,1
-4.0477524,4.117608,-1.1613848,0,1
-2.0510366,2.9743757,-0.8318755,0,1
0.48445073,0.9608786,0.5272953,0,1
1.6958764,-3.4210413,1.0040554,0,1
1.8442595,-4.902989,0.600497,0,1
0.81466675,-6.1651516,-0.3896821,0,1
0.5524937,-5.8838115,-0.6571897,0,1
0.7148419,-2.8757012,-2.445085,0,1
-9.724384,15.006916,-23.243776,0,1
-12.61874,24.97629,-34.403828,0,1
-0.21607482,8.151074,-7.47309,0,1
-0.99703544,5.056728,-0.13338323,0,1
-1.8288385,3.1365647,-0.06939482,0,1
-0.33037847,-1.9505476,-0.5554915,0,1
1.3211755,-5.330156,-1.267588,0,1
4.769529,-8.357319,-1.5358171,0,1
5.998641,-6.7981467,-0.9233405,0,1
5.5417094,1.2926906,0.99789405,0,1
-3.597974,3.1809478,0.7110994,0,1
-6.5520773,2.322814,-0.98688626,0,1
-5.433247,4.203836,-0.73637545,0,1
-4.1611795,4.74435,-0.12387134,0,1
-2.3060427,2.4157965,-0.33633834,0,1
-0.70402634,0.74165916,-0.32715917,0,1
-0.012003038,-0.33205327,-0.3394827,0,1
0.19982484,-1.798074,-0.16521856,0,1
0.045288764,-1.9210103,-0.19950795,0,1
-0.48210615,-1.1418021,-0.34033602,0,1
-0.57837665,0.5300589,0.15856905,0,1
-0.34710595,1.0766518,0.38105398,0,1
0.19158767,0.83358973,0.36240366,0,1
0.4395274,0.14122398,0.28531566,0,1
0.5063197,-1.1746476,-0.5211013,0,1
-0.23641132,-1.429232,-1.2574885,0,1
-0.37847,-1.0140566,-1.2038832,0,1
-0.15328845,0.24118796,-0.6200601,0,1
-0.28635198,0.46863553,-0.52649146,0,1
-1.0655932,-0.06456299,-0.95041394,0,1
-1.1861708,-0.8250774,-1.133886,0,1
-0.98420495,-0.9939969,-1.0523747,0,1
-0.37247294,-0.58037686,-1.0197289,0,1
0.25546247,-0.1599085,-1.1311096,0,1
1.289505,0.37424454,-1.2127182,0,1
0.039294764,0.059410915,-0.79513973,0,1
-0.90356,-0.27705494,-0.5766002,0,1
-1.3195952,-0.23870097,-0.27185896,0,1
-0.9388789,-0.232812,-0.15821679,0,1
-0.4786988,-0.46563828,-0.2865118,0,1
-0.60544664,-0.19548132,0.12853363,0,1
-0.7978591,-0.020898761,0.41815084,0,1
-0.9589317,0.11655339,0.4858958,0,1
-0.9313576,0.18554503,0.36759326,0,1
-0.9251273,0.7205001,0.3270188,0,1
-0.71706486,0.62048256,0.52892673,0,1
-0.48759407,0.278679,0.4754092,0,1
-0.091537565,-0.2698946,0.12007165,0,1
0.014040563,-0.38176733,-0.05566547,0,1
0.040740035,-0.24847709,-0.38578853,0,1
0.004493784,-0.05854617,-0.54225266,0,1
0.005859505,-0.019726846,-0.5164687,0,1
-0.017271418,0.04611104,-0.40101978,0,1
-0.033552058,0.11540504,-0.3312798,0,1
-0.03200826,0.16345023,-0.20597558,0,1
0.034613036,-0.010912935,-0.22413799,0,1
0.021423917,-0.09721094,-0.2743302,0,1
0.019373091,-0.039976176,-0.29798728,0,1
0.015714407,0.059896424,-0.28938684,0,1
-0.040245857,0.20639418,-0.21435879,0,1
-0.22878298,0.11510564,-0.00690289,0,1
-0.34874257,0.06666756,0.005366321,0,1
-0.14875895,-0.029604936,-0.096758604,0,1
-0.014149545,-0.07471182,-0.09657951,0,1
-0.2584467,-0.037774116,-0.1104513,0,1
-0.49908146,0.17884064,-0.061068505,0,1
-0.40108317,0.22845079,-0.081531174,0,1
-0.38467175,-0.08323482,-0.07764332,0,1
-0.36974916,-0.24808505,0.077062696,0,1
0.22502713,-0.33585078,-0.18485363,0,1
0.77353805,-0.56864184,-0.7205999,0,1
0.74086297,-0.4408762,-0.69378453,0,1
0.16070554,0.26055717,-0.13972199,0,1
-0.21967672,0.3964129,-0.05091963,0,1
-0.36404708,0.30889407,-0.57415223,0,1
-0.29980612,0.14100158,-0.7302026,0,1
-0.49826702,-0.09128295,-0.48164353,0,1
-0.83004326,-0.47782904,0.12231646,0,1
-0.84442145,-0.46379095,0.15593342,0,1
-0.91475844,-0.007447324,-0.35912973,0,1
-1.1189967,0.3909635,-0.62556297,0,1
-1.3081368,0.36202422,-0.5424822,0,1
-1.6776798,0.15978709,-0.40664855,0,1
-1.66424,0.10060874,-0.41912034,0,1
-1.4832774,-0.26563752,-0.38792804,0,1
-1.5266743,-0.6633759,0.26639616,0,1
-1.5442044,-0.7121877,0.7544638,0,1
-0.63145965,-0.553112,0.8460456,0,1
0.17257486,-0.1595707,0.06249543,0,1
0.6323377,0.650956,-1.4747021,0,1
0.24226117,0.60623646,-0.4833333,0,1
0.51051354,0.5969144,0.25813207,0,1
0.4965934,0.22587979,0.42351967,0,1
0.4033087,-0.0936937,0.15969458,0,1
0.74812174,-0.24942498,-0.11694406,0,1
1.032734,0.21221173,0.37440464,0,1
0.9335822,0.26921004,0.68565786,0,1
0.7618891,0.06759183,0.80865794,0,1
0.6954536,0.039118875,0.5216331,0,1
0.6604594,0.32358643,-0.40500307,0,1
0.36755496,0.06460731,-1.8327825,0,1
0.07229559,-0.37686017,-2.4668345,0,1
-0.1279163,-0.94179976,-2.5496168,0,1
0.09020053,-0.87604755,-1.7788546,0,1
0.4907954,-0.06743341,-0.30474392,0,1
0.72781515,1.0380936,-0.59779793,0,1
0.69131863,1.0986919,-0.876405,0,1
0.29069912,0.58752996,-1.4412125,0,1
0.044430405,0.15376729,-1.7645804,0,1
0.04787007,-0.7379897,-1.3256716,0,1
1.0184295,-0.5026436,0.25879332,0,1
1.3952606,-0.023593731,0.844098,0,1
1.0511005,0.74127984,0.99749553,0,1
0.6495784,0.9544432,0.5483315,0,1
-0.22004358,0.1798421,0.5490979,0,1
-0.3688455,-0.25823298,0.6826482,0,1
-0.8316935,0.35266393,-0.45129636,0,1
-2.4346168,0.90346605,-1.5593766,0,1
-2.714169,0.5926665,-0.7107006,0,1
-1.6300699,-0.11296069,0.96996,0,1
0.057720236,-0.14785941,0.958523,0,1
0.5841804,-0.22200954,0.78248465,0,1
0.5973262,-0.81557757,0.11557016,0,1
0.5802398,-1.2750636,-0.017872136,0,1
0.82929814,-1.8196795,0.16185035,0,1
0.42102748,-1.9306767,0.22543374,0,1
-0.09139554,-1.7848312,0.49614367,0,1
-0.54417074,-0.80020523,0.7899681,0,1
-0.40036377,-0.22857946,0.5731636,0,1
-0.034915086,1.560609,-0.3462236,0,1
0.8564116,2.3401995,-1.0875337,0,1
0.6571137,1.4713573,-0.7303252,0,1
-2.1271262,-0.004590041,0.18068856,0,1
-3.924593,-0.21184741,0.007025413,0,1
-4.89285,-0.18817921,-0.40227467,0,1
-2.7991862,-0.90689754,0.8295428,1,0
-2.182508,-1.4141693,1.1767333,1,0
-1.2176552,-1.8696995,1.1844234,1,0
-0.5804181,-1.7071419,1.1132119,1,0
0.34436315,-2.1988664,1.3276808,1,0
0.098453924,-3.6300747,1.201846,1,0
-0.5471505,-3.9841993,1.0506692,1,0
-1.8196443,-3.3498414,0.8733616,1,0
-1.5129175,-2.7461836,0.36485916,1,0
1.2783797,-1.4705545,-0.19193599,1,0
0.98847896,-2.0333095,0.6277828,1,0
-0.37160122,-2.6769264,0.56415766,1,0
-2.2166858,-2.8824031,0.72859794,1,0
-2.1907585,-2.9254892,0.5790244,1,0
-0.76242524,-4.243501,-0.70430326,1,0
0.76361614,-6.2004576,-1.3410876,1,0
0.15041119,-6.4926686,-1.1215475,1,0
-1.7024913,-7.276898,-0.010765513,1,0
-0.953232,-6.953198,-0.27333498,1,0
1.486505,2.535276,0.5889512,1,0
-0.26487,13.13894,0.49244702,1,0
0.9793455,16.001024,-0.8916047,1,0
-0.15258676,13.318839,-1.8192247,1,0
-2.9751787,13.035355,-2.685731,1,0
-0.24966477,10.67651,-1.4165826,1,0
2.3883555,0.71694195,-0.060334288,1,0
2.225227,-4.43199,-2.1208127,1,0
6.1584816,-2.2929623,5.1803985,1,0
3.675641,-4.917912,7.9986677,1,0
0.12941504,-9.857925,-1.5563885,1,0
-1.6547112,-4.7854557,-3.425587,1,0
0.10256685,1.2251928,-1.7965949,1,0
7.49177,8.297195,0.81996405,1,0
4.7175713,6.454338,-1.0161287,1,0
-2.4078739,4.974697,-2.9811683,1,0
-3.0116174,6.9129825,-1.8045399,1,0
-2.2206717,5.886947,-0.07080609,1,0
-0.48683995,1.0511764,1.3221555,1,0
0.5022529,-1.7263515,-2.5544205,1,0
0.37788406,-4.992079,-3.9944768,1,0
0.48118782,-3.514983,-1.5829889,1,0
0.44133174,-2.270043,-0.73998165,1,0
-0.55239564,-0.35641763,0.3625609,1,0
-0.69286543,0.8671026,-0.51128787,1,0
-0.45723218,2.9505215,-0.6416737,1,0
-0.09473972,2.6470416,0.67731917,1,0
0.16385606,0.9855807,0.816822,1,0
0.20963952,-1.4101343,0.5877978,1,0
0.12440945,-1.4872789,0.6297447,1,0
0.065860085,-1.2689182,0.23759648,0,1
-0.051199116,-0.49481687,-0.0810173,0,1
-0.16605233,-0.002810514,-0.18221937,0,1
-0.26349655,0.4697628,-0.35733584,0,1
-0.18808109,0.52686214,-0.39224717,0,1
-0.046648316,0.44148728,-0.4173351,0,1
0.024380863,0.35670853,-0.18242909,0,1
0.049806915,0.3102732,-0.065131575,0,1
0.026365638,0.2178793,-0.19460027,0,1
-0.04141691,0.19257353,-0.26474783,0,1
-0.10031265,0.16592596,-0.14551286,0,1
0.040236045,0.031948082,-0.070358396,0,1
0.009560023,0.001310349,-0.000879082,0,1
-0.195843,0.04836562,0.13361488,0,1
-0.17655922,0.11201478,-0.004737424,0,1
0.08622065,0.16716476,-0.36568564,0,1
-0.008865755,0.2824125,-0.4069248,0,1
0.008723417,0.4167366,-0.30600703,0,1
0.25431877,0.7861968,-0.16795346,0,1
-0.004626493,2.009761,-0.07400951,0,1
-3.9965758,3.4484506,0.22654165,0,1
-1.4210545,1.2480603,0.035814002,0,1
-0.16547576,1.0422716,-0.7264906,0,1
0.15559283,1.3769425,-1.5889412,0,1
0.046538055,1.4487809,-1.6061673,0,1
-1.0783796,0.54882604,-1.1468207,0,1
-1.371434,-0.46812463,-0.85917586,0,1
-0.89370006,-0.8648084,-0.9569397,0,1
0.40886587,-1.463444,-0.5747039,0,1
0.8581586,-1.4320346,0.18046854,0,1
0.89541256,-0.9542301,1.5499922,0,1
0.47458345,0.17370538,1.4772472,0,1
0.35612077,0.81504184,0.96837926,0,1
0.12723637,-0.15273198,-0.40104344,0,1
-0.09360948,-1.2014296,-0.50616723,0,1
0.72450316,-1.4396992,0.9323657,0,1
2.4052715,-1.7301941,1.0828061,0,1
2.122002,-1.0265111,1.2483914,0,1
0.19292921,0.7874568,1.0476358,0,1
-0.5302116,0.64359874,0.56527597,0,1
-1.1678118,0.16576383,-0.10167253,0,1
-0.64645946,-0.46280298,-0.06747417,0,1
-0.21676317,-0.9378387,0.1012361,0,1
0.1497019,-0.76144415,0.33229402,0,1
-0.18861713,-0.6067476,0.35998002,0,1
-1.1124134,-0.56454855,-0.045531113,0,1
-1.0568807,-0.15383728,-0.25258228,0,1
-0.8034376,-0.084655814,-0.19174542,0,1
-0.2002269,-0.03471563,0.17430137,0,1
-0.11538139,0.15756713,0.48318455,0,1
-0.32368398,-0.19625652,0.90913695,0,1
-0.117155775,-1.0237025,1.3645716,0,1
0.80976915,-1.0582007,0.9891253,0,1
2.786555,0.35939306,-0.8285096,0,1
2.7368681,0.65322864,-1.2262061,0,1
1.6254729,0.19317138,-0.97951597,0,1
0.73641944,1.1709824,-0.5338727,0,1
0.389844,1.6061099,-0.31436625,0,1
0.110296294,1.2354232,-0.12315511,0,1
0.38851327,0.90021235,-0.35694173,0,1
1.2268214,0.8851128,-0.32597297,0,1
1.0526285,0.9121315,0.16867633,0,1
0.67731375,1.0981838,0.21446462,0,1
0.01434613,1.8083221,-0.6000289,0,1
-0.44551414,1.8696012,-1.0416776,0,1
-1.5299239,0.04862383,-1.0684469,0,1
-0.8663536,-0.8745398,-1.4620668,0,1
0.05373527,-0.4479097,-1.6692845,0,1
0.72372514,0.32880294,-0.9868298,0,1
0.4522694,0.29635233,-0.48160195,0,1
0.028500903,0.35902876,-0.49433234,0,1
-1.1971514,-0.2270395,-0.6166592,0,1
-2.0213375,-0.4062931,-0.5282508,0,1
-1.8734946,0.29269195,-1.345815,0,1
-1.2724357,0.75363517,-1.7421838,0,1
0.07266347,0.69091576,-2.018006,0,1
0.3681354,0.3419425,-1.9377776,0,1
-0.003293499,0.36075276,-1.7938071,0,1
0.33513078,0.16087222,-1.4766145,0,1
0.61843914,0.14606746,-1.1042949,0,1
0.15350087,0.4556627,-0.47622526,0,1
-0.14858572,1.6489918,0.060378518,0,1
-0.05322134,2.204384,0.295997,0,1
-0.08931923,1.8269476,0.5937123,0,1
-0.16639298,1.6167597,0.8989234,0,1
0.5066742,0.65674627,1.5164573,0,1
1.1422327,-1.3018214,2.6172748,0,1
0.9929409,-1.833738,3.1848845,0,1
1.0411533,-1.1082664,3.2964191,0,1
0.8392212,-0.703033,3.0271227,0,1
0.45409393,-0.83039916,2.6101346,0,1
0.7888558,-0.6689116,2.3915956,0,1
0.81252515,-0.31453192,2.0612223,0,1
0.7077385,-0.072349235,1.7219336,0,1
0.9399347,0.03840102,1.9599519,0,1
1.61761,0.6819701,2.3286214,0,1
1.4430758,0.46413082,1.8264374,0,1
1.1484671,0.08128768,1.5303278,0,1
0.9503131,-0.4116629,1.1292064,0,1
0.9466115,-0.5295752,0.9875001,0,1
1.0090774,-0.48985282,0.7268789,0,1
1.1847482,-0.18929093,0.5046799,0,1
1.1428186,-0.16171637,0.43628445,0,1
1.1779891,-0.37790015,0.10500632,0,1
1.2049066,-0.47348028,-0.19215012,0,1
0.7017663,-0.33294025,-0.8119055,0,1
-0.20478776,0.3300494,-0.78947514,0,1
-0.6220532,0.36620608,-0.59567785,0,1
-1.1348525,-0.65126145,-0.34186524,0,1
-0.95751536,-1.4447576,-0.11027317,0,1
-0.13807307,-2.8055723,0.38497812,0,1
-0.4156957,-2.0312335,0.018179728,0,1
-0.53171057,-1.4079525,-0.28928104,0,1
-0.20332032,-0.96071166,-0.2868067,0,1
-0.10396476,-0.7636224,-0.10432526,0,1
-0.13798308,-0.3284808,-0.34205973,0,1
0.16588712,0.005847811,-0.69446754,0,1
0.24846253,0.08373629,-0.7933502,0,1
0.32076266,-0.3779166,-1.2277551,0,1
0.361022,-0.44939736,-1.1781989,0,1
0.16933692,-0.13716902,-0.7139977,0,1
0.23558627,-0.22892466,0.61562234,0,1
0.8952749,0.08683893,1.0607424,0,1
1.3162668,0.58019274,0.5241347,0,1
0.69743216,0.16842088,0.33881012,0,1
-0.11883818,-0.5613164,1.1144247,0,1
-0.31578264,-0.75543004,1.8205144,0,1
-0.74807733,-1.3816402,1.8147547,0,1
-1.0202581,-1.97308,2.2337673,0,1
-0.6007267,-1.1895882,2.6676042,0,1
-0.1600852,0.7015289,1.6316316,0,1
-0.2793352,1.5658007,-1.2020098,0,1
0.00836806,2.0001268,-1.4134647,0,1
-0.23039132,1.1388369,-0.37165046,0,1
-0.5355496,0.18513583,-0.15458362,0,1
-0.2592735,-1.0627568,-0.4201624,0,1
0.089157924,-1.2616255,-0.40872705,0,1
-0.0205039,-1.0219918,-0.18144596,0,1
-0.17630567,-0.4408331,0.4108105,0,1
-0.006128755,-0.10048003,0.36555594,0,1
0.29209265,0.630373,-0.30358922,0,1
0.021343455,0.50909805,-0.19885822,0,1
0.04308386,0.6410666,-0.13296059,0,1
0.15007341,0.948474,-0.3791772,0,1
-0.13247547,0.19029519,-0.31717765,0,1
-0.4865178,-1.1714917,0.18817326,0,1
0.33683896,-0.2152929,0.32277235,0,1
0.42465234,0.12672052,0.35490927,0,1
0.048147768,-0.07021136,0.33458182,0,1
0.047893964,-0.1450014,0.19059932,0,1
0.081784636,-0.19656087,0.1124803,0,1
-0.13524306,-0.19770049,0.24252433,0,1
-0.11716673,-0.046043362,0.22639452,0,1
-0.03188479,0.22295578,0.28332123,0,1
-0.022265568,0.17237861,0.33668503,0,1
-0.24127564,-0.06478687,0.32218605,0,1
-0.2865077,0.12047482,-0.024915876,0,1
-0.18743357,0.2289667,-0.22499259,0,1
-0.11966303,0.21320719,-0.49189478,0,1
-0.09245999,0.11553473,-0.37260294,0,1
-0.04190608,0.012847944,0.23933834,0,1
-0.25769514,0.31341848,0.33147168,0,1
-0.6784442,0.48948768,-0.11029086,0,1
-1.7407042,-0.27368963,-1.6978664,0,1
-1.8048478,-1.1244179,-2.2842376,0,1
0.39634803,-0.07537186,-0.67262954,0,1
1.9697626,1.8337485,1.9342434,0,1
0.8259896,0.23912193,2.4842422,0,1
-0.8002958,-1.8591083,2.3472672,0,1
-0.690851,-1.3030517,2.125598,0,1
-0.38912702,-0.20245987,2.5786183,0,1
-1.5334402,-1.245467,1.9316549,0,1
-2.047935,-1.7166053,1.0533072,0,1
-2.2970178,-1.2717022,-0.8367127,0,1
-2.2988975,-0.8066458,-1.3044835,0,1
-1.4274305,0.2610846,0.15184872,0,1
0.35795715,3.349216,0.20249043,0,1
0.33152345,3.6488738,0.45277807,0,1
0.38081256,2.1898055,0.79888624,0,1
1.3404741,1.9376892,0.49290168,0,1
1.7046151,1.0661584,-0.27328968,0,1
1.1026314,-0.24197403,-0.7503447,0,1
0.99438065,-0.6046745,-0.8687951,0,1
0.6476121,-1.1991618,-0.5764997,0,1
0.4235262,-1.2493831,0.19537258,0,1
-0.26169586,-0.38243738,2.2788079,0,1
-1.1156322,-0.21384299,2.2791564,0,1
-1.3376269,-0.48043612,1.6332945,0,1
-1.4125443,-0.41851902,0.42844552,0,1
-1.2535533,-0.24639337,-0.6488821,0,1
1.1251726,0.98452336,-2.9627419,0,1
3.8974752,1.318897,-2.6110773,0,1
3.0084164,-0.12527388,-1.2537984,0,1
-0.6057892,-1.3457924,2.610283,0,1
-0.82905424,-0.22622432,3.489727,0,1
0.31254634,0.025212452,0.8720988,0,1
-0.49021307,-2.5219023,-0.07161913,0,1
-1.2205242,-3.0862222,-0.046592444,0,1
-2.2455652,-2.9911919,-0.69635826,0,1
-1.6074225,-2.534771,-0.7281169,0,1
0.9679219,0.37811837,-1.3438572,0,1
2.3298736,3.3811855,-3.0494468,0,1
2.0223532,3.3677797,-2.6979353,0,1
0.99963933,1.3460339,-1.1921221,0,1
0.88524514,0.049315296,-1.0185752,0,1
1.3132064,-0.6950371,-0.9857826,0,1
1.4592215,0.16100498,-0.45220628,0,1
1.1729941,0.5679903,-0.33852836,0,1
0.6855041,0.42895222,-0.4039992,0,1
0.503072,0.31429666,-0.52916175,0,1
0.19629198,0.43717477,-0.5646178,0,1
0.38205594,0.81812674,-0.3486292,0,1
0.5893751,0.8939553,-0.2918248,0,1
0.75055176,0.42298037,-0.06302209,0,1
0.66180855,0.05039503,0.001869822,0,1
0.6187816,-0.16453654,-0.3422424,0,1
0.9409148,-0.2682734,-0.26955983,0,1
1.0442418,-0.47796065,-0.16235662,0,1
0.9586183,-0.12855442,-0.45348924,0,1
0.7331984,0.23733515,-0.5785284,0,1
0.29699254,0.22621721,-0.5228596,0,1
0.3829096,0.1430969,-0.30208185,0,1
0.38404483,0.23451424,-0.23105487,0,1
0.062764764,0.0853538,-0.34020072,0,1
-0.07845174,-0.18381986,-0.40606773,0,1
-0.24878776,-0.551366,-0.39942503,0,1
-0.535367,0.0444097,-0.25969005,0,1
-0.6169619,0.27465242,-0.41749114,0,1
-0.0389552,0.8108558,-0.8925032,0,1
0.6699275,1.2751322,-0.95323384,0,1
1.4567226,1.1019096,-0.67986304,0,1
0.8013907,-0.000874433,0.4059359,0,1
0.540725,-0.28508836,1.1584247,0,1
0.7300148,-0.0982519,2.219068,0,1
1.0555844,0.3066439,2.0074306,0,1
-0.6270712,0.81306475,0.30172637,0,1
-4.227249,0.9335088,-0.72180825,0,1
-4.4594655,0.72559446,-0.18611486,0,1
-2.174126,-0.30522048,1.0845721,0,1
-0.93104374,-0.64302146,1.1700587,0,1
0.5114017,-0.9114704,0.72173166,0,1
-0.35162276,-1.7375567,0.04510898,0,1
-0.6699861,-2.0383685,-0.0683071,0,1
0.3094915,-1.8261077,0.26872888,0,1
0.82168007,-1.725608,0.5304014,0,1
1.0159171,-1.7553245,0.81953305,0,1
1.0742726,-1.6612207,0.6329156,0,1
1.2855232,-1.4413633,0.46722683,0,1
2.0787733,-0.9901743,0.4223776,0,1
2.5730996,-0.8473873,0.46453717,0,1
2.769499,-0.66103935,0.15270194,0,1
-0.46560106,1.0356777,-1.6960714,0,1
-3.185946,2.9408548,-2.9425828,0,1
-7.8013477,5.2340536,-1.9455624,0,1
-8.613374,4.276096,0.15396117,0,1
-5.8508263,0.032972,4.039786,0,1
-2.0608258,0.19684738,2.3823137,0,1
-0.9293412,1.4283173,0.7442051,0,1
-0.8468076,0.03218373,0.5155881,0,1
-1.3319799,-0.91399294,0.41767955,0,1
-1.7256885,-0.8700125,-0.55966765,0,1
-1.6921033,-0.8331778,-0.6374059,0,1
-1.4703422,-1.0847332,-0.3969073,0,1
-0.84584475,-1.3810178,0.12836938,0,1
-0.7719921,-1.206155,0.23899105,0,1
-0.81463915,-0.32440758,0.26078495,0,1
-0.52899235,-0.11138628,0.25415608,0,1
-0.47779387,-0.2673006,0.16766241,0,1
-0.47604808,-0.20103559,-0.32285494,0,1
-0.5294782,-0.005254871,-0.65197843,0,1
-0.7769995,0.52592266,-0.8871364,0,1
-0.19781184,1.7945491,-0.3270512,0,1
0.5108022,2.4059594,-0.024591638,0,1
0.579518,2.0898392,-0.03295046,0,1
-0.003854339,1.1599332,-0.1714433,0,1
-0.8305924,-0.9198781,0.17856438,0,1
-0.79770106,-1.6676084,0.9237137,0,1
-0.6482501,-1.4465504,0.75368506,0,1
-0.2715454,-0.16327584,-0.59953684,0,1
-0.1383976,0.25435716,-1.1011302,0,1
-0.4383273,-0.26340398,-0.37307724,0,1
-1.0364256,-0.8284834,1.8445779,0,1
-1.1220876,-0.69548666,2.5629058,0,1
-0.63878226,0.1073603,2.344112,0,1
-0.44824684,0.2975868,1.8819771,0,1
-0.5004229,-0.31746083,1.2616892,0,1
-0.27330005,-0.3694867,0.80744654,0,1
-0.09364368,-0.10835927,0.46600825,0,1
-0.10180792,0.039903663,0.12505952,0,1
-0.1860462,0.013534583,0.2162002,0,1
-0.22865777,0.05373009,0.41517493,0,1
-0.099659756,-0.06767654,0.10574773,0,1
-0.021236068,0.0850372,-0.19774857,0,1
-0.29109436,0.02738561,-0.5650482,0,1
-0.57158256,-0.3125459,-0.48162222,0,1
-0.63464814,-0.48417664,0.39482722,0,1
-0.29448122,0.22375996,1.5999445,0,1
-0.16982386,0.49206868,1.8425833,0,1
0.16583733,0.6232245,1.136661,0,1
0.157345,0.40323368,0.5054187,0,1
-0.18304682,-0.19100484,-0.2792011,0,1
-0.26731342,-0.29251012,-0.34152672,0,1
-0.23890811,-0.18681248,-0.3053337,0,1
0.04498651,0.115433715,0.036798183,0,1
0.26809227,0.16132265,0.25723842,0,1
0.38348907,-0.08199113,0.37101474,0,1
0.23111293,-0.50306135,-0.10285872,0,1
0.14787172,-0.59451884,-0.64160925,0,1
-0.058301225,-0.2867578,-1.6214758,0,1
-0.14907613,-0.010209396,-1.7351301,0,1
-0.21936426,0.13123973,-1.0171639,0,1
-0.005185913,0.0880537,-0.050962485,0,1
0.08760299,0.15027145,0.09944326,0,1
0.08763519,0.17405127,-0.13963996,0,1
-0.002314456,0.07688805,-0.25341833,0,1
-0.23230554,0.003608696,-0.025114786,0,1
-0.31554472,0.035443377,0.41644058,0,1
-0.19494426,0.050286382,0.48744234,0,1
0.03199233,0.032153156,0.11289787,0,1
-0.032016147,-0.007492069,-0.011173148,0,1
0.000484508,-0.10429569,0.30052134,0,1
0.18309942,-0.022702163,0.29878998,0,1
0.097086065,0.014679949,0.20466639,0,1
0.15017845,-0.011150279,0.44812688,0,1
0.32895535,0.065726414,0.69374585,0,1
0.5035677,0.2063124,1.0316318,0,1
0.3415184,0.15111361,0.4984124,0,1
0.15581319,0.058139812,0.011559606,0,1
-0.102987595,-0.08207053,-0.94785404,0,1
-0.15694164,-0.10244108,-1.3025053,0,1
-0.09983582,-0.11984278,-1.3509178,0,1
0.10316475,-0.1734773,-0.68259954,0,1
0.11424665,-0.18369395,-0.28769246,0,1
0.018973347,-0.13539882,0.36529094,0,1
0.004921414,0.021818234,0.39236867,0,1
0.02693995,0.14352995,0.23778552,0,1
0.043886654,-0.08255285,0.37423724,0,1
0.07194596,-0.024671482,0.42543882,0,1
-0.009931684,0.085965216,0.3115219,0,1
-0.11152522,0.05243785,0.3422015,0,1
-0.18681504,0.027385809,0.53880167,0,1
-0.082850404,0.15270436,0.62388605,0,1
-0.058722686,0.17405902,0.5332596,0,1
-0.15222412,0.01375392,0.16642211,0,1
-0.1572462,-0.07934858,-0.009598239,0,1
-0.113600455,-0.07160196,-0.44078216,0,1
-0.13800646,-0.042822022,-0.73620766,0,1
-0.17184374,-0.066310056,-0.6530192,0,1
-0.12642454,-0.08958249,-0.17919146,0,1
-0.05661118,-0.07616806,0.026628163,0,1
0.043696452,0.011335402,0.15322848,0,1
-0.002913552,0.023182893,0.12854111,0,1
-0.04561418,0.019563701,0.1377669,0,1
-0.02465859,0.018093137,0.14524497,0,1
0.013999891,0.018540403,0.10561738,0,1
0.029513983,-0.008262633,0.006704933,0,1
-0.021030422,-0.010149004,-0.002547784,0,1
-0.032958623,0.025726324,0.016526027,0,1
0.010350676,0.02646924,0.034488644,0,1
0.05158926,0.009245882,0.04007814,0,1
0.04481646,-0.017556194,-0.01760782,0,1
0.010389164,-0.07487968,-0.1673263,0,1
0.03092441,-0.057454154,-0.2046257,0,1
0.06914616,-0.024803188,-0.12945724,0,1
0.062929116,-0.003549582,-0.040067505,0,1
0.018439319,-0.015243514,0.102859154,0,1
-0.012163205,-0.002694099,0.17520909,0,1
-0.003260039,0.008939776,0.17947446,0,1
0.000161013,0.017807046,0.21377297,0,1
-0.001525054,0.020340964,0.24014282,0,1
0.022049308,0.025861785,0.2277945,0,1
-0.008898514,-0.008769013,0.13367103,0,1
-0.051505808,-0.010063163,0.05625278,0,1
-0.12157424,0.012881262,-0.09113036,0,1
-0.13980526,0.0246248,-0.14030018,0,1
-0.14352119,0.056935288,-0.14802057,0,1
-0.0772322,0.057074543,-0.062328797,0,1
-0.043094065,0.014787669,-0.030517036,0,1
-0.023392627,-0.04714871,0.013062737,0,1
-0.016541798,-0.043787953,0.048345067,0,1
-0.031069968,-0.015752777,0.09461663,0,1
0.076532185,-0.016144723,0.17349653,0,1
0.114788175,-0.003889054,0.15774438,0,1
0.02605888,-0.037029255,0.08840074,0,1
0.014017642,-0.0302534,0.08407414,0,1
0.08017894,-0.008844356,0.105659924,0,1
0.064005025,0.013488795,0.12437401,0,1
0.052014954,0.015089058,0.11656116,0,1
0.05110611,0.04401304,0.050647818,0,1
-0.006352422,0.028281217,0.015292243,0,1
-0.11713747,-0.031188002,0.08716934,0,1
0.00334172,-0.08009053,0.019921647,0,1
-0.01277223,-0.099421516,-0.002288959,0,1
0.023203898,0.015174852,-0.08942136,0,1
0.030837359,0.04546069,-0.08647987,0,1
0.044990793,0.28279972,-0.13730887,0,1
-0.017246263,0.22172926,-0.22580229,0,1
-0.05029688,0.03462503,-0.13601413,0,1
0.004331095,-0.07806872,0.11563696,0,1
0.040911503,-0.029505698,0.1918897,0,1
0.026952332,-0.11154461,0.064597085,0,1
-0.00170885,-0.036005087,-0.36522043,0,1
-0.000567637,-0.001936029,-0.39174327,0,1
-0.000141118,-0.035303164,-0.24874507,0,1
-0.000584275,0.03157136,-0.18312734,0,1
0.008207462,0.054262158,-0.05585632,0,1
-0.07218949,-0.22773552,0.17514318,0,1
-0.08189174,-0.32001305,0.22893272,0,1
0.031735417,-0.05782889,0.12766418,0,1
0.117823884,0.18190672,-0.006319854,0,1
0.069136426,0.37671378,-0.20023108,0,1
0.08454424,0.16610138,-0.52274907,0,1
0.077745385,-0.09333624,-0.705975,0,1
-0.05708212,-0.35464495,-0.90013766,0,1
-0.104509264,-0.4043152,-0.8460557,0,1
0.03552237,-0.644004,-0.50035876,0,1
0.14328954,-0.59219176,-0.005483197,0,1
0.16308166,-0.4338875,0.122701086,0,1
0.25016662,0.092130706,0.1879528,0,1
0.0886034,0.085003935,0.4222312,0,1
-0.3886886,0.063342296,1.1309007,0,1
-0.62025344,-0.096478224,1.4725671,0,1
-0.773477,-0.3172119,1.348448,0,1
-0.86543053,0.12244523,0.6968379,0,1
-0.79671603,0.39413747,0.29039955,0,1
-0.92122227,-0.62527287,-0.1762598,0,1
-0.92020637,-1.338873,-0.05408869,0,1
-0.74749774,-1.1272136,0.029006947,0,1
0.10172857,0.3487588,0.30998802,0,1
0.27027643,1.8982509,0.9273312,0,1
-0.1537471,1.7372116,0.5610021,0,1
0.7854386,-0.5487482,-0.82155657,0,1
1.3303089,-0.538726,-0.39396295,0,1
0.83754,-0.010605509,1.6231234,0,1
0.01915282,0.09246103,2.1944807,0,1
-0.76823044,0.34400886,2.255352,0,1
-0.26831156,0.16394445,1.1348305,0,1
0.08686663,0.127432,0.66250277,0,1
0.1373926,0.10577497,0.39615083,0,1
-0.4399103,0.029423794,0.47155467,0,1
-1.3546561,-0.5209703,0.6414,0,1
-0.17786849,-0.5691405,0.1504337,0,1
0.75298053,-0.44080934,-0.23981032,0,1
1.3117657,0.29301634,-0.79619557,0,1
1.116986,0.858243,-0.7033547,0,1
1.5127335,0.88691145,-0.35020986,0,1
2.6339247,0.8796447,0.62891906,0,1
1.8819455,0.26809236,0.77533036,0,1
-1.9697767,-0.6952106,-0.30365306,0,1
-3.2158127,-0.9917558,-0.7774663,0,1
-1.9934074,-2.494151,-1.1457739,0,1
0.37984535,-0.8858014,0.3862874,0,1
0.7407814,1.0362437,0.71025795,0,1
-0.23917529,1.0646353,-0.7017404,0,1
-0.98237,0.3399514,-0.7950263,0,1
-1.0635056,0.17606162,-0.09137311,0,1
0.46741965,0.97107434,0.58462954,0,1
1.0322719,1.3201439,0.6885992,0,1
1.8824425,1.7765421,0.7569169,0,1
1.7924156,1.4531424,0.76312613,0,1
0.40734777,-0.008527646,0.5837101,0,1
-0.8306281,-1.1524574,0.33787283,0,1
-1.1115036,-1.5456326,0.16954051,0,1
-1.2981061,-1.9601572,0.03876573,0,1
-1.4362988,-1.502661,0.1640549,0,1
-1.4441037,0.7392513,0.7416682,0,1
-0.6490774,1.2541106,0.7631515,0,1
-0.30049327,1.1080257,0.28737283,0,1
-0.55843496,0.7981177,-0.37572688,0,1
-0.8342601,0.14264473,-0.82518435,0,1
-0.30797613,-1.8829575,-1.532758,0,1
0.32476985,-1.7054821,-1.9296932,0,1
0.05925192,-0.8526931,-2.055605,0,1
-0.09024122,1.2163203,0.35743672,0,1
0.13569489,2.160276,0.9142902,0,1
-0.4229484,0.96873933,-1.5445125,0,1
-1.0464989,-1.4347475,-3.1319554,0,1
-0.9696795,-1.2915854,-2.0146997,0,1
0.026767012,0.007104048,0.7084357,0,1
0.6444082,0.036525015,1.2653935,0,1
0.8292188,-0.22952342,1.39986,0,1
0.38915476,0.29440048,1.2426867,0,1
0.16211186,0.35467073,1.0494112,0,1
-0.07935317,0.30884758,0.72076577,0,1
0.036920592,0.18698993,0.76782006,0,1
0.39926785,-0.19309314,1.081103,0,1
0.47967485,-0.79524314,1.4264783,0,1
0.3587095,-1.1148051,1.3696945,0,1
0.2358672,-1.2816895,1.2219903,0,1
0.33761466,-1.301565,1.4056281,0,1
0.27525353,-1.6632365,1.7283524,0,1
0.10885638,-1.5268079,0.9347627,0,1
0.22916502,-1.5673656,1.0462722,0,1
0.47517976,-1.8097608,2.7714436,0,1
0.33273995,-2.1390288,3.2400732,0,1
0.55922514,-4.3187175,2.4893625,0,1
1.331447,-6.278018,1.6767962,1,0
0.9859989,-6.2069707,1.9619126,1,0
-0.41704687,-5.087554,3.0434036,1,0
-0.9573001,-4.954324,2.7735982,1,0
-0.9439378,-4.0450606,0.9554741,1,0
-0.33875746,-3.7247167,-0.14088987,1,0
-0.30635315,-3.388792,-0.60473245,1,0
0.3527794,-1.7004247,-1.3225484,1,0
1.3196357,-2.8017235,-0.81480545,1,0
1.9158341,-4.333464,-0.95254904,1,0
-3.3870382,6.103847,-6.539946,1,0
-4.4503636,13.122528,-6.706433,1,0
-3.7007425,21.85025,-7.5924616,1,0
-2.434981,22.815823,-7.269,1,0
-1.6726797,13.059666,-4.1395926,1,0
-0.3185772,2.889281,-2.2494137,1,0
0.4082946,-2.1781075,0.49060568,1,0
0.845534,-17.22891,6.6764445,1,0
2.147379,-16.518549,3.6022646,1,0
1.1723021,-5.0682583,-3.8054922,1,0
1.4038396,3.5234952,-6.0340757,1,0
-0.0968101,4.8550334,-5.767631,1,0
-1.5429542,6.952098,-3.9724135,1,0
-1.4846847,6.1078773,-3.3799021,1,0
-1.3774672,0.6670042,-2.3707757,1,0
-0.35335672,-3.8985732,-1.659887,1,0
-0.13046728,-5.12732,-1.5006958,1,0
-0.5347243,-3.6693957,-1.3261105,1,0
-0.53032887,-2.1143894,-1.1887016,1,0
-0.4594549,1.4706401,-1.5709195,1,0
-0.5092012,4.105123,-1.0047382,1,0
-0.6008347,4.0771165,-0.24012192,1,0
-0.28701386,1.8002331,-0.18850282,1,0
-0.20748685,0.5295429,-0.15811789,1,0
-0.31613114,-0.4541483,0.35888883,1,0
0.14510816,-0.9684841,-0.35100305,1,0
0.34309316,-1.6312363,-0.2010668,1,0
0.36858505,-1.1842471,0.25567204,1,0
0.3491835,-0.29797074,0.28744882,1,0
0.3038304,0.7328215,0.12952192,1,0
-0.24145223,2.6146147,-0.20584995,1,0
-0.82012945,3.1933045,0.1295286,1,0
-0.5662428,0.5998661,0.87470925,1,0
-0.18588325,-1.0990019,0.9649728,1,0
0.22878665,-1.92088,0.7137454,1,0
0.2361905,-1.5537492,0.763808,1,0
0.33618444,-1.5067044,0.6950917,1,0
0.55495054,-0.56746197,0.38410446,1,0
0.54214954,0.14040951,0.113056414,1,0
0.3983904,0.71803,-0.23835497,1,0
0.039361484,0.19054888,-0.27035302,1,0
-0.0398606,-0.16032036,-0.32978112,1,0
-0.04739984,-0.35207763,-0.6858728,1,0
-0.13181257,-0.23156184,-0.82278746,1,0
-0.3828491,-0.055558328,-0.610776,1,0
-0.40692234,0.5025024,-0.71784735,1,0
-0.47782558,0.8340826,-0.7757264,1,0
-0.66526455,0.66711426,-0.27570713,1,0
-0.5398313,0.35680485,-0.050784644,1,0
-0.17978491,0.092142135,0.13145061,1,0
-0.13082755,-0.01463887,0.19854866,1,0
-0.11363321,-0.12029836,0.2181972,1,0
0.028237347,0.00337222,0.1512865,1,0
0.13462278,0.11029246,0.043326538,1,0
0.20352407,-0.05671693,-0.03901986,1,0
0.2575299,-0.41514975,-0.05283034,1,0
0.34746626,-0.58228403,-0.072797306,1,0
0.30127746,-0.39901456,-0.11704026,1,0
0.18051729,-0.119018584,-0.11227745,1,0
-0.062494136,0.079662316,-0.08825144,1,0
-0.3735674,0.1046915,-0.10529553,1,0
-0.41157132,0.07141018,-0.009106373,1,0
-0.34906885,-0.090859435,-0.045585364,1,0
-0.3065574,-0.006420162,-0.11308368,1,0
-0.24057414,0.35814667,-0.15815377,1,0
-0.037052684,0.21055984,-0.12987556,1,0
0.11383504,-0.019923225,-0.08406715,1,0
0.084654026,-0.16686729,-0.07443226,1,0
-0.05613558,-0.21840765,0.06347793,1,0
-0.07122914,-0.20911986,-0.12526919,1,0
-0.17341396,0.70741177,-0.28706852,1,0
-0.29878652,0.9401656,-0.13770875,1,0
-0.32555765,0.7092219,-0.052073352,0,1
-0.35034668,0.6167727,-0.002324169,0,1
-0.7555096,0.78453076,-0.037118673,0,1
-0.8100583,0.79928684,-0.44724548,0,1
-0.80429137,0.6629457,-0.6319924,0,1
-1.0527102,0.98207366,-1.0788349,0,1
-1.0832667,0.97627527,-1.41657,0,1
-0.85078955,0.18250345,-1.4036005,0,1
-0.6082061,0.05237948,-0.70179164,0,1
-0.5031823,0.36676973,-0.48616278,0,1
-0.57518595,1.040394,-0.122465335,0,1
-0.42146134,0.94021046,-0.05347732,0,1
0.19805141,0.21731094,-0.000954718,0,1
0.009431667,0.060022354,-0.0382454,0,1
-0.24188273,-0.045183208,-0.11012718,0,1
-0.5920126,-0.49321377,-0.29864815,0,1
-0.6094053,-0.713318,-0.394185,0,1
-0.41019654,-0.7291251,-5.68E-05,0,1
0.39782047,-0.885934,0.09497947,0,1
0.6991623,-0.9214641,0.043422244,0,1
1.3290598,-0.6461754,0.24634254,0,1
1.6189811,-0.3187799,0.30509534,0,1
1.7261186,-0.042063743,-0.32838982,0,1
1.5040569,-0.4911052,-0.49692366,0,1
1.69113,-0.7861167,-0.2189568,0,1
1.6915411,-0.88711077,0.1025312,0,1
1.2394516,-0.6928644,0.07775321,0,1
0.16896111,-0.35670862,-0.3381018,0,1
-0.28693455,-0.4403148,-2.5089335,0,1
-0.48549548,-0.9464491,-3.6035688,0,1
0.0350703,-1.6226708,-2.3482864,0,1
0.18027373,-0.9861062,-1.081679,0,1
-0.060629934,0.950517,1.1301494,0,1
0.3203556,0.26398107,0.9400243,0,1
-0.40765926,0.28444967,0.38878602,0,1
-0.59131753,1.6142516,1.4919196,0,1
-0.7838107,2.2343144,1.7208495,0,1
-1.0920641,1.9101765,0.24990809,0,1
-0.29117024,0.75280285,-0.5674196,0,1
-0.07246582,0.3756904,-0.68687695,0,1
-0.33085516,0.002065525,-0.72083503,0,1
-0.51547474,-0.1416685,-0.83800745,0,1
-0.045143977,-0.6964791,-1.0957658,0,1
0.17092995,-0.96912515,-1.2930481,0,1
-0.37128842,-0.57908565,-1.2463155,0,1
-0.6683026,0.4192762,-0.46797746,0,1
-0.31081682,0.63884073,0.11831003,0,1
0.247846,1.1414101,0.9050642,0,1
0.7684099,1.7358508,1.2390023,0,1
0.99056375,1.7610326,1.2461888,0,1
-0.2140454,1.6071495,0.7629672,0,1
-0.7506917,1.6814806,0.18885323,0,1
-0.77884907,1.7455627,-0.8991906,0,1
-0.46628302,1.4465188,-1.3681167,0,1
0.04901278,1.0379657,-1.4470137,0,1
0.72577405,-0.13502717,-1.35652,0,1
0.7064166,-0.47737622,-1.1017857,0,1
0.10498062,-0.6817962,-0.39320096,0,1
-0.110634,-1.0060464,0.051934008,0,1
-0.027681094,-0.96804434,0.5005192,0,1
0.22312841,-1.0501299,0.95666414,0,1
0.20057747,-1.2085638,0.8585054,0,1
-0.10967954,-1.1408329,0.81814635,0,1
-0.685563,-0.7993908,0.7937693,0,1
-0.90133417,-0.62570375,0.89756614,0,1
-0.621771,-0.04414634,1.1959736,0,1
-0.34465343,0.16968557,1.1048584,0,1
-0.20562679,0.2961609,0.95227474,0,1
-0.37756994,0.15129389,0.71078175,0,1
-0.51201487,0.026036326,0.3882481,0,1
-0.5652639,0.2015267,0.18416128,0,1
-0.6074581,0.41396436,0.27143115,0,1
-0.9917481,0.18139172,0.032967392,0,1
-1.3260921,-0.28305158,-0.2538192,0,1
-1.4250535,-0.26311216,-0.12978473,0,1
-1.3469316,0.60388,0.035245504,0,1
-1.2050931,0.84743226,0.004270541,0,1
-0.8640081,0.17951298,-0.000567061,0,1
-0.9682703,-0.2907324,0.092464514,0,1
-0.9830826,-0.29198265,0.21271703,0,1
-0.5944048,-0.09033006,0.4598845,0,1
-0.30238196,-0.056511845,0.25436908,0,1
-0.7656758,-0.8784592,-0.50847334,0,1
-1.2468812,-1.8409885,-0.66394585,0,1
-0.77600574,-1.5690464,-0.78122646,0,1
0.33785522,0.56006813,-0.42158338,0,1
0.81755555,1.5439408,-0.004659593,0,1
1.3337934,2.1492484,0.37942466,0,1
0.5225649,-0.5838995,0.28656018,0,1
-0.95993054,-2.866111,-0.395519,0,1
-3.5921278,-3.0852087,-1.1208562,0,1
-3.0052803,-1.1713507,-0.12351155,0,1
0.93589145,-0.4235028,0.85192424,0,1
2.04118,-2.128285,-1.0065054,0,1
1.0491102,-2.3229318,-1.576848,0,1
-1.031609,-1.7584672,-1.1332394,0,1
-1.2819579,-1.3543829,-0.87886715,0,1
0.50597435,0.35447875,-0.786396,0,1
1.8850899,2.3375382,0.55288476,0,1
1.7802525,1.5123342,0.80704564,0,1
2.1567159,0.57477796,1.4656286,0,1
2.5210118,0.43602312,1.3693963,0,1
2.85496,-0.21379757,-0.13401347,0,1
2.1308734,-0.4473677,-0.052945543,0,1
1.4954216,-0.5143632,0.53518486,0,1
0.33875692,-0.31498605,1.1749848,0,1
0.14676812,-0.1706694,0.91319484,0,1
0.30993924,-0.02621458,0.10331625,0,1
0.29937336,-0.007006664,-0.12921426,0,1
0.40137845,0.060139623,-0.26776358,0,1
0.6067699,0.027692731,-0.43428212,0,1
0.5244087,-0.043580104,-0.30052817,0,1
0.5121891,-0.22483924,-0.08894574,0,1
0.59118855,-0.045367267,-0.18919812,0,1
0.47158766,0.04210278,-0.2569179,0,1
-0.024306038,0.20976734,-0.15537767,0,1
-0.33514237,0.2411776,0.08684909,0,1
-0.5884204,0.060696702,0.57721406,0,1
-0.08876118,0.31912342,0.6305585,0,1
0.11001681,0.3498927,0.36355072,0,1
0.104544185,-0.02213766,-0.10401247,0,1
-0.14211248,-0.15668586,-0.063538685,0,1
-0.47793332,-0.2002611,0.2978417,0,1
-0.40374872,0.03162487,0.43173724,0,1
-0.1662692,0.24465379,0.38918614,0,1
0.5188293,0.40628633,0.17475197,0,1
0.74584407,0.21585277,-0.094938025,0,1
0.6177111,-0.4617769,-0.71912324,0,1
-0.07638095,-0.48319072,-0.6037352,0,1
-0.1848732,-0.3143607,-0.2566865,0,1
-0.17533168,-0.2427549,0.38289234,0,1
-0.20214716,-0.17978276,0.6676748,0,1
-0.33896002,0.1271535,0.5663998,0,1
-0.9057499,0.085231796,0.13472082,0,1
-1.1604097,0.105769165,0.08481252,0,1
-1.5132967,0.38320738,0.077202424,0,1
-1.4955491,0.59320736,-0.096334204,0,1
-1.1798791,0.35952753,-0.35369265,0,1
-1.5232024,-0.61499125,0.096516475,0,1
-1.5533537,-0.7895871,0.43021807,0,1
-0.9624742,-0.85795784,0.76689327,0,1
-0.47411755,-0.6988373,0.4752547,0,1
0.46299303,0.8957567,-0.85458535,0,1
-0.3184849,0.6249207,-1.0860351,0,1
-0.63972306,-0.276271,-0.51955837,0,1
0.09601621,-0.69493484,0.18169501,0,1
0.69269884,0.025354413,0.06546385,0,1
0.98185503,0.6783829,-0.54940283,0,1
0.50198334,-0.13355273,-0.94107,0,1
0.40892363,-0.22442932,-0.97017413,0,1
0.23508736,-0.24037093,-0.86929035,0,1
0.09856614,-0.17566217,-0.70771927,0,1
0.007140839,0.08472248,-0.24189337,0,1
0.012841582,0.13008216,0.11687232,0,1
0.0624301,0.1270743,0.22830465,0,1
0.20335105,0.13505273,0.13753785,0,1
0.28266713,0.07030203,0.073055364,0,1
0.44279715,-0.34353638,0.1889387,0,1
0.42489102,-0.15098663,0.3122734,1,0
0.3637624,0.113256514,0.22388108,1,0
-0.47749785,0.15774634,0.16866443,1,0
-1.1318963,-0.027052874,0.16053103,1,0
-1.3184352,-0.77941537,-0.4312562,1,0
-0.75730306,0.544914,-1.552509,1,0
-0.77169377,1.6376857,-1.7546004,1,0
-0.92835367,1.5640718,-0.37982294,1,0
-0.7284021,0.8157037,0.9860337,1,0
-0.3456589,0.039796293,2.3482642,1,0
-0.34575,-1.5606527,1.2341232,1,0
-0.38468572,-2.4071193,0.8513487,1,0
-0.37161976,-2.7609718,0.6452093,1,0
-0.30288616,-2.1082094,0.58086187,1,0
0.11652648,1.8756315,-0.6360091,1,0
-0.3756502,2.8533459,-1.3604103,1,0
-1.3622276,0.90687174,-0.7540517,1,0
-1.2471721,-0.94953364,-0.11837363,1,0
-0.65931576,-0.69163525,-0.37144122,1,0
-0.25297904,0.08367234,-1.0675048,1,0
-0.45778808,-0.19502276,-0.77057266,1,0
-0.6179858,-0.5309164,-0.564677,1,0
-0.3419427,-0.4688913,-0.49789608,1,0
-0.030578807,-0.21783742,-0.35042432,1,0
0.1329658,-0.4011564,0.45550886,1,0
-0.002636455,-0.7789078,0.6312782,1,0
0.19326194,-0.6939029,0.6180784,1,0
0.64649785,-0.5087365,1.0553304,1,0
0.58681226,-0.5008849,0.90001786,1,0
0.1124462,-0.6145811,0.2625551,1,0
0.25561038,-2.0097013,0.7446756,1,0
0.40595135,-2.8580327,1.0149895,1,0
0.6540338,-2.5335116,1.2489775,1,0
0.626967,-1.7809601,0.99189276,1,0
-0.09277426,-1.6468585,-0.22745398,1,0
0.001747133,-1.689647,-0.219542,1,0
0.43410748,-1.2014809,0.32092994,1,0
0.67621475,-0.45414624,1.0628757,1,0
0.4660313,0.05861204,0.8655891,1,0
0.11182795,0.91321576,0.0757243,1,0
0.32993147,0.4487679,0.93097687,1,0
0.35688287,0.2146857,1.2512898,1,0
-0.03005474,0.18198223,1.0026578,1,0
0.06631037,0.4507487,1.1053331,1,0
0.11225067,0.93044704,1.6431252,1,0
0.16385871,0.6354613,2.0651543,1,0
0.29138857,0.5930409,2.0062528,1,0
0.33770898,0.9918322,1.6234759,1,0
0.4988668,1.0496583,1.783967,1,0
1.1453717,0.41473445,2.7107515,1,0
0.58739233,-1.0210081,2.9145122,1,0
-0.5918497,-1.7878684,2.2556212,1,0
-2.443451,-1.0255883,-0.44049227,1,0
-2.077404,0.80934316,-1.5424794,1,0
-0.842852,5.2193546,-2.9551373,1,0
-1.6090305,4.6661067,-3.9692924,1,0
-1.8636706,2.9170165,-3.9263933,1,0
-2.1521535,1.5148969,-3.59124,1,0
-1.7019265,1.6572682,-3.1472762,1,0
-0.28536135,0.84100235,-1.4154546,1,0
-0.30987963,-2.1832025,-0.5694289,1,0
-0.054853093,-2.612327,-0.8401857,1,0
0.7337326,-2.3556406,-2.1426632,1,0
0.7523531,-2.465265,-2.4460263,1,0
0.68698645,-2.4697814,-1.7091379,1,0
0.61135554,-3.2053463,-0.73576343,1,0
0.5841262,-3.9203486,-0.5434952,1,0
1.0566128,-1.7478802,0.07802202,1,0
1.1831149,0.40547386,0.3010585,1,0
0.29530558,3.347609,-0.43982917,1,0
-0.45131072,2.6764507,-1.3088167,1,0
-0.43207306,1.3430156,-1.434213,1,0
-0.43875816,-1.184773,-2.1828537,1,0
-0.6335503,-2.3960745,-2.3564117,1,0
-1.6556666,-4.1085615,-1.6113592,1,0
-2.0110376,-2.995329,-1.1459512,1,0
-1.6103259,-1.9718937,-0.6268368,1,0
-1.4658451,1.189234,0.5596309,1,0
-1.9543304,5.127485,0.76305085,1,0
-1.8669031,9.238344,1.1877595,1,0
0.04024014,5.612508,1.6721063,1,0
-0.09146893,2.7898736,1.1000108,1,0
-1.4827789,-3.0722575,0.18894729,1,0
-1.1436791,-4.0059323,-0.011820302,1,0
0.44089055,-2.8115869,0.64493483,1,0
0.8248285,-0.93427175,1.0700041,1,0
0.7324774,0.96540195,0.81212693,1,0
1.1842618,3.66083,0.109985866,1,0
1.0359768,3.1404595,0.002899024,1,0
0.34740052,-0.13288975,0.05724325,1,0
0.051122233,-0.8407974,0.7580381,1,0
0.06136742,-0.21804039,0.5981369,1,0
-0.53003204,0.35488218,-0.38770014,1,0
-0.68801,0.27057928,-0.46817145,1,0
-0.13342248,0.3503123,0.123369746,1,0
0.2077136,0.21278295,0.329659,1,0
-0.07235628,-0.069228165,0.10462469,1,0
-0.6011352,-0.40640172,-0.046784043,1,0
-0.5456832,-0.4251166,0.1125021,1,0
-0.4153394,-0.6107559,0.28930688,1,0
-0.46670622,-0.16606997,0.23697682,1,0
-0.29746866,0.21264654,0.17887788,1,0
-0.01860511,0.34497643,-0.15207218,1,0
0.018948771,0.24905297,-0.33915228,1,0
0.12379341,0.08389566,-0.19163078,1,0
-0.020812606,0.119285606,0.037597336,1,0
-0.1309961,0.10085109,0.083161086,1,0
-0.1887277,-0.039233167,0.26263496,0,1
-0.14199616,-0.099596925,0.38468945,0,1
0.050560217,-0.031981383,0.48893803,0,1
0.07634893,0.002481518,0.3159104,0,1
-0.053014852,-0.12763117,0.19001849,0,1
-0.20497245,-0.32702923,0.12288613,0,1
-0.105970815,-0.23832321,0.20526253,0,1
-0.01678368,-0.07599925,0.08030715,0,1
-0.23373188,-0.098744415,-0.003803612,0,1
-0.27590865,0.036425583,-0.034000374,0,1
-0.2792838,0.11670872,-0.24976455,0,1
-0.29183495,0.010867056,-0.3288768,0,1
-0.2228346,0.17276192,-0.087495334,0,1
0.056156736,0.9062711,-0.005475893,0,1
0.30243862,0.8328744,-0.0645664,0,1
0.44136572,-0.2826691,0.02446528,0,1
0.18056676,-0.6848612,0.21949151,0,1
-0.23042452,-0.47169587,0.47822505,0,1
-0.7279304,0.36348528,-0.4207987,0,1
-1.0045128,0.6175403,-0.6704034,0,1
-0.004847898,0.5969239,0.007559427,0,1
0.6553655,0.25637254,0.18843536,0,1
0.19514707,-0.14861873,-0.09293561,0,1
-0.21058176,0.77382004,-0.03512426,0,1
-0.12787025,0.71354586,0.016582247,0,1
-0.44610238,0.07891936,-0.2707084,0,1
-0.5462991,0.425561,-0.014197512,0,1
-0.07924256,1.2571441,0.13422076,0,1
-0.19480902,-0.14751537,-0.3124056,0,1
-0.8518859,-0.12041004,-0.24994515,0,1
-0.96233124,1.0209894,-0.5163855,0,1
-0.8482334,1.6451235,-0.946625,0,1
-1.0772405,2.728551,-1.7335029,0,1
-0.9147966,2.2825544,-2.0739038,0,1
-0.74847436,1.3310983,-2.0005887,0,1
-0.17446339,0.239517,-1.2858977,0,1
0.24430805,0.08181368,-0.8268747,0,1
0.33459172,-1.1424915,0.12614386,0,1
0.40516222,-2.5738866,0.2926545,0,1
0.55957794,-2.856106,0.056953475,0,1
-0.07919164,-2.6801069,-0.6006418,0,1
-0.44320318,-2.353918,-0.8702763,0,1
-0.8558883,-1.6254123,-0.830653,0,1
-0.87475425,-1.1776202,-0.87426907,0,1
-0.82720816,-1.3593715,-1.215128,0,1
-0.635519,-1.5636525,-1.0078503,0,1
-0.30361623,-1.5320143,-0.8773753,0,1
-0.27365607,-2.629796,-0.8083268,0,1
-1.2469995,1.8071765,-1.7934017,0,1
-0.75918674,6.8515334,-2.1053205,0,1
2.8197072,1.8662809,0.25193062,0,1
0.16617665,-3.431841,0.26250815,0,1
0.33036423,-6.65624,2.8517747,0,1
0.36118805,0.882165,5.003856,0,1
0.06724244,1.9918698,3.5326214,0,1
0.57639396,1.0698591,2.8594553,0,1
1.5105048,0.70900524,4.0577807,0,1
1.5062566,0.9302779,4.9191093,0,1
1.1460581,0.2681683,4.1899757,0,1
1.1542192,0.22460715,3.324455,0,1
0.46308178,0.11315854,1.6486238,0,1
0.21287936,-0.19353652,1.4852585,0,1
0.5035773,-0.7097471,1.7758974,0,1
0.59951353,-0.20251076,0.55183405,0,1
-0.60899806,-0.383794,-0.6748739,0,1
-0.9859444,-0.83327526,-1.44718,0,1
-0.09243483,-0.65348554,-1.066904,0,1
0.34745526,-0.53002936,-0.015173096,0,1
0.08296832,-0.023628194,0.24812023,0,1
-0.5099677,0.1365976,-0.22489023,0,1
-0.9474891,-0.2079317,-0.7213252,0,1
-0.55769336,-0.40908542,-0.4546526,0,1
-0.20539172,-0.43810183,-0.027939605,0,1
-0.5330411,0.37654397,-0.42527127,0,1
-0.94399166,1.2688082,-0.96760696,0,1
-1.2232046,3.364445,-1.8275086,0,1
-1.3002971,3.7009165,-1.8399124,0,1
-1.134765,2.94493,-1.3555917,0,1
-0.41362438,1.8025886,-0.83397436,0,1
-0.18531016,1.3053055,-0.6942078,0,1
-0.19099902,0.421894,-0.61326504,0,1
-0.27354702,-0.12240421,-0.5366883,0,1
-0.039636243,-0.9706289,-0.20590994,0,1
0.19519742,-1.3798906,-0.11796074,0,1
0.16583356,-1.6713231,-0.111343615,0,1
0.26712188,-1.770423,0.33575714,0,1
0.5520546,-1.7156993,0.60169643,0,1
0.6954644,-1.5986881,1.2922715,0,1
0.6146475,-0.09855915,1.3249692,0,1
0.9642021,0.6426557,1.1885902,0,1
1.2891908,1.1321645,1.7747791,0,1
1.0757426,1.3920321,2.0242572,0,1
0.6693507,0.9989686,2.054824,0,1
0.6405983,0.7435689,2.1183984,0,1
0.807566,0.9523902,1.8036017,0,1
1.0057306,1.0538753,1.5023777,0,1
1.0721399,0.8035377,1.3826833,0,1
1.0066302,0.16257791,1.3855727,0,1
0.6616013,0.48499706,1.150944,0,1
0.4730978,0.78232604,1.0160164,0,1
0.29032633,0.59692407,1.0512993,0,1
0.418311,0.4280379,1.0723227,0,1
0.6735343,0.4638455,0.94693553,0,1
0.5641393,0.31984442,0.795087,0,1
0.49903214,0.17057815,0.7178238,0,1
0.4112179,-0.120381266,0.52679086,0,1
0.33958122,-0.32751554,0.49540663,0,1
0.15557405,-1.2325611,0.7809189,0,1
-0.03767425,-2.1864548,0.70110047,0,1
-0.08636374,-2.3581684,0.42595556,0,1
-0.01753518,-2.2084234,0.28209785,0,1
0.050904974,-1.940838,0.48374948,0,1
0.16423415,-1.3188133,0.7090743,0,1
-0.009946434,-0.71937954,-0.33390146,0,1
-0.42021185,-0.63350606,-0.986183,0,1
-0.86162794,-0.87995183,-1.4055467,0,1
-0.7575291,-0.9593681,-1.2189436,0,1
-0.66251636,-0.5672314,-0.93036723,0,1
-0.27925956,-0.048871122,-0.39904907,0,1
0.11778128,-0.084115006,0.14064683,0,1
0.81010157,-0.19369401,0.6328897,0,1
1.0410246,-0.06460846,0.5732492,0,1
0.703919,0.5084907,0.24294302,0,1
-0.4495858,0.5778264,-0.8545943,0,1
-0.8793429,-0.004553021,-0.9186848,0,1
-0.6936856,-0.8938209,-0.026699033,0,1
-0.40390712,-0.5390512,-0.26309136,0,1
-0.39417735,0.11193828,-1.129677,0,1
-0.55644643,-0.28537658,0.019472713,0,1
-0.4636358,-0.26004404,0.5545837,0,1
-0.3512628,-0.026861101,0.5618194,0,1
-0.44822282,-0.066193484,0.63283974,0,1
-0.7820483,-0.463395,1.0452161,0,1
-0.78335464,-0.55803096,1.0463535,0,1
-0.53813857,-0.3168362,0.9965365,0,1
0.29803628,0.4312985,0.9358699,0,1
0.2950471,0.74965686,0.7865809,0,1
-0.3595379,0.42863,0.36445847,0,1
-0.44597495,-0.5507126,0.29812035,0,1
-0.2720396,-0.45553115,0.24695946,0,1
-0.014653869,0.2981644,-0.06598544,0,1
-0.013749391,0.28960323,-0.09017441,0,1
0.053289123,0.006548912,0.15972862,0,1
0.07323432,0.6356306,-0.39101174,0,1
-0.12662813,0.6667098,-0.89671826,0,1
-0.6102462,-0.40786004,-0.936199,0,1
-0.6065221,-0.9323475,-0.38891703,0,1
-0.31507015,-1.4869719,0.7426622,0,1
0.02293237,-1.2302265,0.7349204,0,1
0.22717786,-0.19240667,0.076739706,0,1
0.3968392,2.2703753,-1.1118978,0,1
0.03033632,1.588751,-0.64236957,0,1
-0.46018994,-0.7682552,1.113969,0,1
0.11455372,-0.41296473,0.7580267,0,1
0.2839069,-0.045906965,0.30706945,0,1
0.28811428,0.44683653,-0.007866226,0,1
0.25103736,0.5961438,0.044643525,0,1
0.06664017,0.17185882,0.08760573,0,1
0.20465231,-0.30918124,-0.09266036,0,1
0.37306222,-0.25422388,-0.18384202,0,1
0.5005615,0.06653306,-0.23886415,0,1
0.40423915,0.090180375,-0.21038738,0,1
0.19605674,-0.16596033,-0.029516958,0,1
0.37001333,-0.008797565,0.4215838,0,1
0.35136014,0.050247304,0.5491635,0,1
0.048710063,-0.14136311,0.2667121,0,1
-0.085650206,-0.17588139,0.07914545,0,1
-0.107366614,0.12973404,-0.051393993,0,1
-0.1996581,-0.109349295,-0.13051634,0,1
-0.3211619,-0.22320087,-0.25331604,0,1
-0.36271375,0.22082992,-0.4058507,0,1
-0.18854149,0.4083033,-0.22571813,0,1
0.22335815,0.29306516,0.2639878,0,1
0.18936327,-0.098006256,0.030635035,0,1
0.047369126,-0.34667116,-0.11772636,0,1
-0.23191887,-0.073701926,-0.30904582,0,1
-0.4098338,0.1420354,-0.52362204,0,1
-0.59088403,-0.26748085,0.17440279,0,1
0.43840924,0.5669205,0.9691968,0,1
0.45444423,0.9427178,0.62259376,0,1
-0.5725471,0.13239297,0.44489288,0,1
-0.71608275,-0.35915557,0.71744335,0,1
-0.772809,-0.44546983,0.6032521,0,1
-0.8521673,0.25978082,-0.39226535,0,1
-0.62912196,0.61742675,-0.8658872,0,1
0.32440603,1.3193005,-1.5132424,0,1
0.5418116,1.1366318,-1.1634332,0,1
-0.2571807,-0.88675207,0.9976325,0,1
-0.75807,-1.1573571,1.6489353,0,1
-0.66889966,-0.9794625,1.3192945,0,1
-0.5677414,-1.9647574,1.5357686,0,1
-0.46271497,-2.6980615,1.8296812,0,1
0.06901284,-3.6944664,1.9404552,0,1
0.7175346,-0.6242436,0.779471,0,1
0.82228845,3.1409974,0.036530066,0,1
-0.4843706,6.3665137,-2.6953738,0,1
-1.8920635,3.1734798,-3.5974731,0,1
-1.6692433,-2.04249,-3.307016,0,1
1.7842147,1.0636454,-0.68290263,0,1
1.4675246,1.35598,0.1454295,0,1
0.338605,-0.04363823,-0.007123415,0,1
0.43925402,-0.29238614,-0.34448403,0,1
0.71942663,-0.05968963,-0.6294986,0,1
0.43032628,-0.41236883,-0.118809894,0,1
0.082586095,-0.5026159,0.30422416,0,1
-0.105089374,0.01724543,0.77320087,0,1
-0.08311663,0.12730329,0.8162537,0,1
-0.39258677,-0.16118608,0.8820685,0,1
-0.79877967,-0.20814213,1.1210747,0,1
-0.9455874,-0.08905013,1.0750747,0,1
-0.87844443,-0.042135123,0.76278085,0,1
-0.6492777,-0.09619324,0.5787021,0,1
-0.50213027,-0.18978879,0.38134348,0,1
-0.6721113,-0.06648726,0.39837533,0,1
-0.7720412,0.27296358,0.30766833,0,1
-0.839077,0.47915092,0.55372065,0,1
-0.5812548,0.45609778,0.65980935,0,1
0.17444001,0.4643689,0.17529233,0,1
0.62241375,-0.0576649,-0.18109196,0,1
0.44315603,-0.358655,-0.03754427,0,1
-0.1360401,-0.747077,0.28999922,0,1
-0.38723075,-0.9298888,0.25449196,1,0
-0.71632886,-1.4290334,0.13469781,1,0
0.06375928,-1.2850609,0.724741,1,0
0.51326346,-1.0633249,0.9030081,1,0
0.67216253,-0.7788591,0.9523522,1,0
0.4844912,-1.0886412,0.7385699,1,0
0.3819047,-1.8275816,-0.076189116,1,0
1.4660722,-1.8346283,0.15161125,1,0
1.5913749,-1.8283211,0.6734729,1,0
0.8521509,-2.5864463,0.9238651,1,0
0.7978411,-2.9126172,0.70352954,1,0
1.8502334,-3.028777,0.58238727,1,0
1.6108844,-2.5498958,0.84748906,1,0
1.2319417,-2.3793316,0.9366925,1,0
1.1316432,-3.139395,0.8381855,1,0
0.7761141,-3.5098584,0.78982824,1,0
-0.24040458,-2.1969428,1.1441475,1,0
-1.1453551,-2.3306532,0.9298944,1,0
-2.0164163,-3.2264285,0.08062938,1,0
-2.5855546,-3.8308349,-0.24646017,1,0
-1.9064434,-3.5583792,0.13100173,1,0
-0.519052,-2.512467,0.73303455,1,0
1.3062618,3.2039807,-2.1362402,1,0
2.993843,8.258836,-5.0570383,1,0
2.7149205,21.1436,-6.942708,1,0
-0.16808468,23.381456,-3.4191594,1,0
-2.9315877,16.583052,3.010208,1,0
-2.933666,6.9136357,4.2100487,1,0
-1.7448443,1.5047702,3.5328085,1,0
2.217448,-6.854231,0.913379,1,0
1.840617,-9.255997,-0.19433725,1,0
-0.008476257,-11.627246,-0.8174763,1,0
-0.75623477,-9.613238,-1.5722101,1,0
-0.88284004,-8.289109,-2.1295896,1,0
-1.1652297,-3.221745,-5.1897492,1,0
-2.6532297,1.2904584,-7.1479197,1,0
-6.944335,8.8022785,-7.7007203,1,0
-7.769496,8.540311,-4.7098227,1,0
-6.5725203,5.8101373,-3.6417263,1,0
-2.7707117,-1.7856098,-1.7260813,1,0
-1.428888,-4.449312,-0.80643773,1,0
-0.5952797,-6.302133,-0.001355061,1,0
0.05196187,-4.7000885,0.46494612,1,0
-0.15381345,-2.684621,0.22139567,1,0
-1.4752586,1.4204311,-0.73086846,1,0
-1.7892331,2.906273,-0.8749976,1,0
-1.6686128,4.4221797,-0.29330158,1,0
-1.5195868,3.2955492,1.5299958,1,0
-1.2538244,2.5060537,2.7041314,1,0
0.05996108,1.054365,4.161863,1,0
0.55403113,0.47886255,3.7965016,1,0
0.915366,-0.5533357,2.6419947,1,0
1.4448389,-1.2891204,1.7373599,1,0
1.4765968,-1.4419612,1.2515556,1,0
1.1670048,-1.395137,0.073240705,1,0
0.9234808,-1.1234791,-0.7191648,1,0
0.3327319,-0.115797445,-2.2184114,1,0
0.17975913,0.594442,-2.3614128,1,0
0.124147624,0.56531113,-1.984962,1,0
-0.52606165,0.4854658,-1.4339659,1,0
-0.6419417,0.23527506,-1.2786279,1,0
-0.33982882,-0.3907426,-1.2297258,1,0
-0.50924695,-0.67311317,-1.4343493,1,0
-0.31453848,-0.7919802,-1.6480168,0,1
0.5412314,-0.69004965,-2.4055972,0,1
0.7432481,-0.5914951,-2.6366308,0,1
0.7860108,-0.24085467,-2.2006137,0,1
0.8263719,-0.052627742,-1.0447937,0,1
0.7483501,-0.047570333,-0.61295974,0,1
0.3545822,-0.14855675,-0.17593868,0,1
0.21948211,-0.23927116,0.120721094,0,1
0.08462951,-0.33744514,0.7866027,0,1
-0.047833726,-0.21289909,0.8254996,0,1
-0.049637973,0.006647228,0.66099423,0,1
-0.0995574,0.23728566,0.10808443,0,1
-0.19135256,0.20798019,-0.013126764,0,1
-0.8061865,0.30350596,0.16512117,0,1
-1.1471002,0.075825796,0.66294014,0,1
-1.098618,-0.17387097,0.59420174,0,1
-1.2354374,-0.27700996,0.30311114,0,1
-1.4244059,-0.11858172,0.5003767,0,1
-1.6997434,0.41140187,0.49244666,0,1
-1.8284212,0.74462515,0.32351434,0,1
-1.8261331,0.7872478,0.21047051,0,1
-1.3863693,0.9215661,0.077998966,0,1
-0.923657,0.8284274,-0.10917682,0,1
-0.34479108,0.48673436,-0.49912137,0,1
-0.08123426,0.010624745,-0.7861242,0,1
0.122966856,-0.2867834,-0.7979716,0,1
0.3599044,-0.60281575,-0.5225882,0,1
0.47740108,-0.77145976,-0.46234986,0,1
0.5977971,-0.88799965,-0.19698872,0,1
0.56522363,-0.5367785,0.07186058,0,1
0.81851065,-0.27107528,-0.018752102,0,1
1.139529,0.16940594,-0.1765398,0,1
1.0333147,0.22258948,-0.37862524,0,1
0.7765134,0.16190706,-0.9238316,0,1
0.3554483,-0.16486375,-0.8959845,0,1
0.032013353,-0.23149216,-0.5136719,0,1
0.055843346,-0.16369534,0.10977275,0,1
-0.24245404,-0.33637524,0.13173872,0,1
-1.3427144,-0.6364489,0.19596729,0,1
-1.7363399,-0.57187754,0.09961967,0,1
-1.7540984,-0.32262328,0.24337927,0,1
-0.9175981,0.6670543,0.48004806,0,1
-0.40408605,1.1552784,0.476366,0,1
-0.49544567,1.1841174,0.27526665,0,1
-0.99058783,0.4441568,0.56159985,0,1
-0.7507681,0.40214846,0.839392,0,1
-0.11530591,0.3063746,0.25502482,0,1
0.20148589,0.19556142,-0.1454785,0,1
0.62135464,0.26060006,-0.47761947,0,1
0.2835668,-0.24576682,-0.87617207,0,1
-0.2327779,-0.34107703,-0.74304545,0,1
-0.66099864,-0.1583033,-0.0746138,0,1
-0.40473852,-0.20933628,0.19233736,0,1
-0.11854921,0.008742338,0.036016088,0,1
-0.12023702,0.6437673,-0.7187544,0,1
-0.28188956,0.9309244,-0.74683714,0,1
-0.25092226,1.1204252,-0.82953346,0,1
0.026219666,1.0598458,-1.0559906,0,1
0.1911276,1.3600463,-1.0799075,0,1
-0.016308673,2.0651636,-0.9570639,0,1
-0.48400286,2.3372545,-0.6436869,0,1
-1.7464453,2.6384633,0.40712258,0,1
-1.9873041,2.6705048,0.7381117,0,1
-1.1321412,2.104993,0.41708592,0,1
0.13539167,0.75497144,-0.90813065,0,1
0.40497324,0.07930066,-1.3395777,0,1
0.078621484,-1.2422823,-1.0389413,0,1
-0.53571,-1.9349703,-0.78742373,0,1
-0.74111265,-1.778108,-0.48402065,0,1
0.027280692,-0.7186212,0.817275,0,1
0.24008292,-0.9250545,0.8140432,0,1
1.1151596,-1.3027382,0.75436133,0,1
1.2319037,-1.5847015,1.2390227,0,1
0.90870434,-1.9928188,0.94798315,0,1
1.0655309,-1.594225,0.6984882,0,1
1.0216392,-0.8992204,0.8598939,0,1
0.23402014,0.6117966,1.1138786,0,1
-0.15947378,0.8542283,0.8974289,0,1
-0.3559449,0.5178224,0.3851321,0,1
-0.49941128,0.58322823,0.27110082,0,1
-0.40884483,0.56450564,0.047771733,0,1
-0.3488392,0.45527175,-0.18476845,0,1
-0.4801813,0.4983292,-0.098279595,0,1
-0.74915576,0.4889851,-0.038623396,0,1
-0.6586627,0.3987599,0.014158987,0,1
-0.760828,0.14371012,-0.111629255,0,1
-1.0101085,0.24859716,0.001766391,0,1
-0.95354253,0.49244222,0.20288628,0,1
-1.3300471,0.052206986,0.047164176,0,1
-2.0373971,-0.34774885,-0.07080464,0,1
-2.0166824,0.2920294,0.12629038,0,1
-2.0069883,1.733474,0.36437973,0,1
-2.311914,0.97501874,0.7564298,0,1
-2.961879,-0.82747084,0.4749466,0,1
-2.8813484,-0.2401675,1.107748,0,1
-1.9224476,0.43654174,0.94462174,0,1
0.555003,1.1931258,-0.09936442,0,1
1.6543635,1.3906671,-0.17674623,0,1
1.7296416,-0.025594637,0.26616204,0,1
-0.1000302,-2.4585984,0.08682844,0,1
-0.48873124,-3.049735,-0.05004449,0,1
-0.18011843,-2.1262248,-0.07407466,0,1
-0.24477932,-1.325554,0.31314388,0,1
-0.62344825,-1.0669804,0.64882714,0,1
0.20872723,-1.2921772,0.315762,0,1
0.5359899,-1.5326359,0.095687754,0,1
0.5264043,-1.9579939,-0.53106683,0,1
0.34789512,-1.7603782,-0.79565763,0,1
-0.75268173,-1.0232289,-0.65854603,0,1
-1.873642,-1.3835539,-1.1112976,0,1
-1.2526243,-1.187443,-0.8149396,0,1
1.5182371,2.0040936,1.2006621,0,1
2.9025714,2.7531877,0.86434484,0,1
2.988402,0.6305691,-2.800313,0,1
2.2658508,0.21528676,-2.8691053,0,1
2.531066,0.7012861,-1.8733312,0,1
2.0397482,0.32124516,-0.46186596,0,1
1.4760576,-0.13439366,0.11424238,0,1
1.006945,-0.6760129,1.0526496,0,1
0.99018466,-0.97255516,0.42047715,0,1
0.8386628,-0.7847806,-0.009997665,0,1
0.16846994,-0.382331,-0.36340404,0,1
-0.06754941,-0.20204076,-0.33760145,0,1
-0.31035116,-0.69887644,0.15352969,0,1
0.48530328,-0.23809347,-0.36636457,0,1
0.94141656,1.3215045,-1.1826495,0,1
0.052590907,1.1130685,-1.2355837,0,1
-0.31534258,0.13769238,-0.49716848,0,1
0.25666195,0.145754,0.66945887,0,1
0.38074848,0.22477075,1.0041947,0,1
0.29315203,-0.099732265,0.8064007,0,1
0.17837109,-0.5058041,0.046513148,0,1
0.2146583,-0.45416075,0.044266634,0,1
0.43821695,-0.7227477,0.93779814,0,1
0.62751526,-0.68817776,1.8586814,0,1
0.6452359,0.015779836,1.8361583,0,1
0.7289506,1.4918234,0.47183076,0,1
0.60014015,1.6702816,-0.36048388,0,1
-0.016223177,1.2740916,-1.3820832,0,1
-0.8655176,0.4420183,-1.3773963,0,1
-0.8140456,-0.080822185,-0.9668691,0,1
0.10347456,-0.5978709,-0.0831071,0,1
0.41026962,-0.7371865,0.08171815,0,1
0.33733454,-0.9286206,-0.6945531,0,1
-0.26993972,-0.32516423,-2.0384448,0,1
-0.9060831,0.24165973,-2.2459378,0,1
-1.7594472,-0.13207263,-0.74439305,0,1
-1.0630585,-0.575822,-0.25640884,0,1
0.6334955,0.15951616,-1.1753732,0,1
-0.6214972,0.6673601,-1.1995555,0,1
-1.6363692,0.231325,-0.8457691,0,1
-2.1256762,-0.056864016,-1.0386379,0,1
-1.5943265,0.13367152,-1.2628742,0,1
-0.3568435,-0.2066433,-0.8555645,0,1
0.5182642,-0.43817914,-0.396941,0,1
0.5798049,-0.2457858,-0.35967806,0,1
0.34048596,0.034865282,-0.59175897,0,1
0.38301378,0.30210865,-0.8314526,0,1
0.4245569,0.5924166,-1.3096316,0,1
-0.30503845,0.11116669,-1.5033284,0,1
-0.9238918,-0.14351685,-1.5882592,0,1
-1.9120737,-0.5334667,-1.6289368,0,1
-1.9518787,-0.64089143,-1.638738,0,1
-0.74406195,-1.1140409,-1.6638875,0,1
0.1870697,-0.93237823,-1.5318154,0,1
0.16746008,-0.50594455,-1.3442308,0,1
-0.19853777,0.18376626,-0.64845103,0,1
-0.7237145,0.8209554,0.21442497,0,1
-0.99983984,1.7419002,2.5796082,0,1
1.177145,1.3318448,2.2103977,0,1
1.1147302,1.3310075,1.769134,0,1
-0.09347333,1.0403379,1.4833405,0,1
-0.00288751,0.8890918,0.87894475,0,1
1.2011933,-0.23102963,-0.5879293,0,1
1.0779252,-2.1461034,-1.0190158,0,1
0.6539146,-2.7055569,-1.0655895,0,1
0.17476259,-3.7864828,-0.52004486,0,1
-0.17789768,-4.730425,0.5457322,0,1
-1.8713677,-4.584975,2.0151753,0,1
-6.3175774,4.7751694,2.6255875,0,1
-7.1414337,8.315963,3.9800067,0,1
-0.338019,1.8326867,5.201286,0,1
1.8632,-0.9676001,4.4342456,0,1
-0.86587304,2.6013043,0.23183636,0,1
-1.5195566,2.6281161,1.0873681,0,1
-1.2818981,1.2706274,1.2206652,0,1
-1.6241974,-0.107560225,-0.14280869,0,1
-1.8542478,-0.3927347,-0.41806045,0,1
-2.0610878,-1.156398,-0.6019065,0,1
-2.048252,-1.8194828,-1.0677224,0,1
-2.323191,-2.0650554,-1.3571613,0,1
-2.475366,-2.1463597,-2.015181,0,1
-1.9284539,-1.3561922,-2.353424,0,1
0.13800675,1.3189342,-2.2825541,0,1
3.0669432,2.6950238,0.055447195,0,1
3.7321181,3.0138423,0.9619761,0,1
3.0562212,1.8245941,1.9365518,0,1
2.0198698,0.34454587,2.4421482,0,1
0.4387729,-1.9104279,2.2277615,0,1
0.32126063,-2.4715848,1.462617,0,1
0.35936856,-1.9998884,1.1364914,0,1
0.2926036,-0.76163775,0.29101995,0,1
0.078602165,-0.59229666,-0.073268056,0,1
0.021963924,-0.5106517,-0.42245048,0,1
0.7115437,-0.9234992,0.05364725,0,1
0.9890987,-1.3864241,0.55047417,0,1
1.3933547,-1.3438756,1.5451813,0,1
1.3583204,-0.7316482,1.6962153,0,1
0.8105311,2.0827823,0.8802257,0,1
0.32868192,1.33195,3.1443775,0,1
-0.5037817,-0.81757474,4.6886845,0,1
-0.38122362,-1.4721118,5.2679176,0,1
0.020579338,0.13216765,4.32515,0,1
0.33706132,2.5862622,1.2527752,0,1
-0.2871571,1.544634,-0.6176402,0,1
-0.4583981,1.6844674,-0.723167,0,1
-0.012666419,3.0232155,-1.1500984,0,1
0.17191158,2.4970875,-1.4221259,0,1
0.3384041,-0.78341997,-1.3775028,0,1
0.45428002,-3.9172213,-1.6832708,0,1
0.39764616,-5.112819,-1.8145045,0,1
0.15285686,-6.393235,-1.3663993,0,1
0.07619309,-6.2429624,-0.97919387,0,1
0.20873874,-4.197455,-0.78809065,0,1
-0.16554168,-0.6080754,-1.0210159,0,1
-0.4587973,1.0602589,-0.42185074,0,1
-0.6897852,1.798593,1.6206282,0,1
-0.7900456,1.170177,1.8478202,0,1
-0.4297024,1.6042601,1.8437202,0,1
0.16547391,4.0571547,2.4967144,0,1
0.4522603,5.8474073,2.547972,0,1
0.47386014,5.5542135,3.3905232,0,1
0.03886774,3.7212584,3.4859245,0,1
-0.49790686,0.5886015,2.2086964,0,1
-0.37242964,-1.2832813,0.9467603,0,1
-0.12512946,-1.950226,0.9435965,0,1
-0.16909331,-2.2220879,0.8685705,0,1
-0.45443326,-1.7301466,0.30906814,0,1
-0.77286774,-0.3762457,-0.782232,0,1
-0.47210336,0.7866488,-0.35089344,0,1
-0.23942281,1.0953323,0.06943338,0,1
-0.08515002,0.8585741,0.47906575,0,1
-0.053766258,0.39847866,0.5602521,0,1
0.13577543,-0.3894156,1.1496998,0,1
-0.036048055,-0.5447548,1.5033847,0,1
-0.17839244,-0.49888784,1.2879149,0,1
-0.3941977,-0.40307516,0.70836586,0,1
-0.4282216,-0.3215923,0.41385055,0,1
-0.1976108,0.070659615,-0.15004589,0,1
-0.081352815,0.48480994,0.0478942,0,1
-0.10663654,0.5859776,0.14673476,0,1
-0.091065,0.42665774,0.01570763,0,1
-0.081204504,0.22420692,-0.15535861,0,1
-0.033246856,-0.12863259,-0.19716069,0,1
0.23124924,-0.2940617,-0.04635053,0,1
0.38162732,-0.29738334,-0.04166105,0,1
0.41954145,-0.14146616,-0.05463613,0,1
0.35385898,-0.017613417,-0.056609042,0,1
0.28531456,0.24997899,-0.38758942,0,1
0.13957503,0.24225701,-0.7435854,0,1
-0.04608085,0.04764547,-0.611692,0,1
-0.1924609,-0.23289879,-0.25931457,0,1
-0.11783501,-0.17859368,-0.19594279,0,1
-0.20261516,-0.12515166,-0.07295496,0,1
-0.2721041,-0.06560511,0.3591282,0,1
-0.29299995,-0.017730627,0.5239244,0,1
-0.3079208,0.08675872,0.5631158,0,1
-0.21563801,0.15867433,0.45294115,0,1
-0.083407015,0.14609535,0.32975137,0,1
-0.11534913,-0.00762456,0.3896666,0,1
0.027154902,0.08040338,0.24794465,0,1
0.124919616,-0.02024933,0.20372531,0,1
0.000281028,-0.22855945,0.45007053,0,1
-0.07036538,-0.17453374,0.70614505,0,1
0.049656637,-0.1678056,0.46570274,0,1
0.037431158,-0.31510445,0.31740636,0,1
-0.1672123,-0.33620837,0.09294853,0,1
-0.14711215,-0.06960011,0.032303613,0,1
0.31705433,0.50149447,-0.1578232,0,1
0.041392148,0.34587482,-0.03125001,0,1
-0.18255337,0.30963236,0.24196407,0,1
-0.36729017,0.17610556,0.28149775,0,1
-0.437671,-0.1160793,0.29471394,0,1
-0.19224258,-0.27379784,1.0535207,0,1
0.17007172,0.39802682,1.6896974,0,1
0.12272029,0.46718732,1.8298166,0,1
-0.04524988,0.4182762,1.6545018,0,1
0.040465295,0.6534417,1.4571873,0,1
0.2508513,0.5843795,1.405933,0,1
0.15359336,0.09992913,1.4421406,0,1
0.021794293,0.13747136,0.8058327,0,1
-0.48889327,0.3248308,-1.2390163,0,1
-0.45602706,0.6808432,-1.3464307,0,1
0.3613849,1.2630503,0.7669794,0,1
0.3151114,1.3050655,1.5932658,0,1
0.41768575,1.7483183,1.8772384,0,1
0.8671373,1.2425,2.8564866,0,1
0.45849305,0.91725874,2.0425892,0,1
0.022977486,0.7414238,0.73403805,0,1
0.036022477,0.53873944,1.0208017,0,1
-0.34369174,-0.046556383,0.566706,0,1
-0.34546006,-0.894977,-1.2040474,0,1
-0.054536767,-0.7807526,-1.645045,0,1
0.046457753,-1.0080991,-1.6853508,0,1
-0.123886436,-2.075964,-1.7980303,0,1
-0.08279377,-2.1979027,-1.9766946,0,1
-0.004818872,-1.7788007,-2.4330199,0,1
-0.01686424,-1.3508841,-2.486527,0,1
-0.11875474,-0.71747154,-1.8373973,0,1
-0.29313594,-0.6033347,-1.2741774,0,1
-0.13058443,-0.20369652,-1.3131803,0,1
0.22244701,0.39078698,-1.1645443,0,1
0.2039762,0.22319305,-0.8539143,0,1
0.16443945,-0.113111615,-0.60024065,0,1
0.07305028,-0.12214483,-0.69653845,0,1
0.003138293,-0.18005,-0.50941956,0,1
-0.058758046,-0.16170314,-0.08436321,0,1
-0.09221751,-0.06819535,0.010328964,0,1
-0.12304318,-0.08148286,0.22411563,0,1
-0.042567037,-0.16057774,0.28629702,0,1
0.011331591,-0.024409266,0.17238763,0,1
-0.052689075,0.411315,-0.18304265,0,1
-0.10389438,0.31940365,-0.17047727,0,1
-0.082018584,-0.0324888,0.16122797,0,1
-0.06632571,-0.106549226,0.28599885,0,1
-0.10900693,-0.1667995,0.34454474,0,1
-0.023597423,0.015126311,0.46001536,0,1
0.044394653,0.19677745,0.38523903,0,1
-0.051370032,0.08747104,0.14093922,0,1
-0.115536265,-0.14265539,0.025209308,0,1
-0.08484372,-0.14980508,-0.015103871,0,1
-0.026171954,-0.04473211,-0.06403252,0,1
-0.027314026,0.035689346,-0.063085504,0,1
-0.004055989,0.10595418,-0.033975054,0,1
0.002887409,0.008747107,0.029324071,0,1
-0.03685254,-0.06289768,0.03732965,0,1
-0.08624409,-0.09340667,0.0794445,0,1
-0.06676861,-0.015622124,0.09881896,0,1
-0.03068608,0.10051444,0.07000002,0,1
-0.10817936,-0.07375051,-0.013342363,0,1
-0.09674247,-0.18154243,-0.035354286,0,1
-0.021150114,-0.09674741,-0.004341946,0,1
0.027414722,-0.001344675,0.027860219,0,1
0.15341999,0.061435737,0.14579932,0,1
0.1614688,0.21570496,0.092681356,0,1
0.116176486,0.23393252,0.028943509,0,1
0.008126773,0.00275041,0.07262686,0,1
0.004741554,-0.05228518,0.124477014,0,1
0.07612563,0.014215495,0.13073342,0,1
0.06792843,-0.025636658,0.09313162,0,1
0.018548962,-0.05430889,0.03074274,0,1
-0.027835935,-0.018619545,-0.025612283,0,1
-0.019865973,0.015600207,0.007280265,0,1
0.027926525,0.002016077,0.051150993,0,1
0.017359523,-0.018212317,0.023111438,0,1
-6.52E-05,-0.032193184,0.012394364,0,1
-0.013739487,-0.041121498,-0.05815775,0,1
-0.0255322,-0.02138712,-0.09940926,0,1
-0.02883105,0.030870419,-0.12563856,0,1
-0.033983275,0.034856785,-0.07316488,0,1
-0.039216127,0.051461224,-0.01672832,0,1
0.0042879,0.00132086,0.11564349,0,1
0.004835806,-0.02137277,0.14759874,0,1
0.003551671,-0.014589296,0.08617781,0,1
0.020798827,-0.03142738,0.03703986,0,1
0.001312504,-0.027528761,0.032132413,0,1
0.000572977,-0.01999663,0.0789358,0,1
0.02447353,-0.007143005,0.0902789,0,1
0.027884593,0.003751755,-0.005910342,0,1
0.02817328,-0.038686752,0.010103175,0,1
0.028042546,-0.027422896,0.06589438,0,1
0.04399318,0.02464584,0.16861375,0,1
0.069596775,0.028954543,0.18415917,0,1
0.022088286,0.033688568,0.09712089,0,1
-0.044845387,0.003824238,0.02359275,0,1
-0.03299833,-0.021374702,0.017220851,0,1
-0.01093726,-0.006521228,-0.012184204,0,1
0.000137303,0.017137526,-0.021758791,0,1
0.013895419,0.014894486,-0.014336437,0,1
-0.022422142,-0.028971687,-0.0636073,0,1
-0.04426349,-0.02590658,-0.0698159,0,1
-0.033102423,0.004190446,0.006479273,0,1
-0.006913315,0.020409593,0.038549915,0,1
0.023887295,0.015644081,0.033206508,0,1
0.052393883,0.020287508,-0.04327806,0,1
0.03147457,0.017529475,-0.082500584,0,1
-0.08282221,-0.024633422,-0.049827866,0,1
-0.11569969,-0.023727417,0.033591922,0,1
-0.08840204,0.020576525,0.2757743,0,1
-0.04383247,0.00431067,0.3518149,0,1
-0.023851726,0.001681387,0.33096224,0,1
-0.045778006,-0.006903612,0.21520656,0,1
-0.059607156,-0.040115338,0.12720361,0,1
0.011063966,-0.046219844,-0.08307891,0,1
0.03724622,0.014609302,-0.20859268,0,1
0.038423143,0.049111336,-0.20971094,0,1
0.020475075,0.021115268,-0.2081726,0,1
0.013812229,-0.015776668,-0.17684612,0,1
0.05477883,0.010010728,0.03440859,0,1
0.14658502,-0.004006331,0.29416078,0,1
0.15925471,-0.021382269,0.3463828,0,1
0.18022874,-0.002556729,0.38928285,0,1
0.18094048,0.002159202,0.44735298,0,1
0.1734033,0.02653226,0.44920814,0,1
0.08572354,-0.035972543,0.29579774,0,1
0.07741953,-0.055330254,0.15882611,0,1
0.05857958,-0.021377604,-0.22777915,0,1
