, ms_accelerometer_x, ms_accelerometer_y, ms_accelerometer_z,outcome
0,-0.663086,0.43798828,-0.6359864,0
1,-0.6533203,0.40966797,-0.6262207,0
2,-0.64819336,0.38623047,-0.6298828,0
3,-0.6633301,0.4289551,-0.66821295,0
4,-0.673584,0.4116211,-0.6689454,0
5,-0.68139654,0.4157715,-0.6357422,0
6,-0.6733399,0.43701175,-0.6264649,0
7,-0.6801758,0.42944336,-0.61401373,0
8,-0.6855469,0.43481448,-0.6245117,0
9,-0.6804199,0.46679688,-0.65136725,0
10,-0.6669922,0.425293,-0.63159186,0
11,-0.6687012,0.42138672,-0.63525397,0
12,-0.6696778,0.42333984,-0.6389161,0
13,-0.66528326,0.41943362,-0.6364746,0
14,-0.66503906,0.41430667,-0.6340332,0
15,-0.6635742,0.41748047,-0.64819336,0
16,-0.66186523,0.4111328,-0.6435547,0
17,-0.6591797,0.421875,-0.64501953,0
18,-0.6591797,0.421875,-0.64501953,0
19,-0.6687012,0.41479492,-0.64868164,0
20,-0.6699219,0.40771487,-0.64282227,0
21,-0.6699219,0.40600586,-0.6499024,0
22,-0.67211914,0.40893555,-0.6398926,0
23,-0.6772461,0.39672855,-0.6403809,0
24,-0.6760254,0.39916992,-0.6469727,0
25,-0.6657715,0.38452148,-0.6293946,0
26,-0.67187506,0.3803711,-0.6386719,0
27,-0.6694336,0.37988284,-0.64941406,0
28,-0.6713867,0.40429688,-0.65869147,0
29,-0.6665039,0.4038086,-0.6538086,0
30,-0.6647949,0.39868164,-0.6557618,0
31,-0.6501465,0.39916992,-0.6657715,0
32,-0.65795904,0.41381836,-0.67211914,0
33,-0.65795904,0.41381836,-0.67211914,0
34,-0.65600586,0.41235352,-0.6726075,0
35,-0.65600586,0.41235352,-0.6726075,0
36,-0.65502936,0.4243164,-0.6669922,0
37,-0.65502936,0.4243164,-0.6669922,0
38,-0.6496582,0.40795898,-0.67187506,0
39,-0.6496582,0.40795898,-0.67187506,0
40,-0.64868164,0.42285156,-0.6674805,0
41,-0.6765137,0.42138672,-0.6796875,0
42,-0.6723633,0.42456058,-0.67846686,0
43,-0.6723633,0.42456058,-0.67846686,0
44,-0.6723633,0.42456058,-0.67846686,0
45,-0.6723633,0.42456058,-0.67846686,0
46,-0.6723633,0.42456058,-0.67846686,0
47,-0.66137695,0.43261722,-0.640625,0
48,-0.66137695,0.43261722,-0.640625,0
49,-0.66796875,0.4047852,-0.56396484,0
50,-0.6640625,0.3046875,-0.63818365,0
51,-0.65405273,0.29345703,-0.64941406,0
52,-0.6206055,0.37719727,-0.69799805,0
53,-0.5402832,0.41284183,-0.78271484,0
54,-0.51782227,0.50268555,-0.8271485,0
55,-0.5185547,0.5488281,-0.8449707,0
56,-0.54663086,0.345459,-0.8779297,0
57,-0.63427734,0.23510742,-0.8139649,0
58,-0.56030273,0.18945312,-0.65771484,0
59,-0.5461426,0.18115236,-0.71118164,0
60,-0.5488281,0.25463867,-0.77783203,0
61,-0.56469727,0.31909183,-0.7734375,0
62,-0.62109375,0.2578125,-0.7922363,0
63,-0.62109375,0.2578125,-0.7922363,0
64,-0.6635742,0.23950195,-0.8378906,0
65,-0.6101074,0.20751955,-0.84277344,0
66,-0.6437988,0.15698244,-0.8513184,0
67,-0.6459961,0.16625977,-0.7998047,0
68,-0.54174805,0.16381836,-0.7529297,0
69,-0.53222656,0.18115236,-0.76928717,0
70,-0.5341797,0.21850587,-0.782959,0
71,-0.5239258,0.23168947,-0.828125,0
72,-0.51660156,0.24829102,-0.84716797,0
73,-0.52368164,0.2841797,-0.84887695,0
74,-0.517334,0.24291992,-0.8120117,0
75,-0.5625,0.32080078,-0.7939453,0
76,-0.6472168,0.26391602,-0.7795411,0
77,-0.72900397,0.14404297,-0.8737793,0
78,-0.73217773,0.13354492,-0.9020996,0
79,-0.63085943,0.12768555,-0.7612305,0
80,-0.6528321,0.05419922,-0.6901856,0
81,-0.7670899,-0.014404297,-0.6882324,0
82,-0.8264161,-0.08496094,-0.6699219,0
83,-0.9106446,-0.099609375,-0.72460943,0
84,-0.92578125,-0.115722656,-0.8574219,0
85,-0.6838379,-0.020263674,-0.91845703,0
86,-0.5031738,-0.030273438,-0.850586,0
87,-0.49291992,-0.006591797,-0.8112793,0
88,-0.51464844,0.04248047,-0.7416992,0
89,-0.50097656,-0.010253906,-0.76464844,0
90,-0.44262695,-0.04663086,-0.7402344,0
91,-0.44433597,-0.010986328,-0.71484375,0
92,-0.47045898,-0.05834961,-0.642334,0
93,-0.5095215,-0.14648438,-0.4716797,0
94,-0.54125977,-0.3569336,-0.27392578,0
95,-0.5539551,-0.61401373,-0.23828126,0
96,-0.8808594,-1.2485353,-0.46826172,0
97,-0.9797363,-0.770752,-0.53564453,0
98,-0.9733887,-0.47094727,-0.7502442,0
99,-0.41088867,0.3569336,-0.46411136,0
100,-0.2770996,-0.008789063,-0.0913086,0
101,-1.494629,-0.236084,0.34228516,0
102,-1.7846681,-0.6103516,-0.038085938,0
103,-2.0246582,-0.8569336,-0.48706055,0
104,-1.7478027,-0.8947754,-0.66503906,0
105,-1.2138672,-0.6437988,-0.4553223,0
106,-1.1555176,-0.32934573,-0.112548836,0
107,-1.1140137,-0.52612305,-0.096435554,0
108,-1.2402344,-0.5402832,-0.14819336,0
109,-1.2858888,-0.5673828,-0.15527344,0
110,-1.2944336,-0.46118167,-0.019042969,0
111,-1.2963867,-0.38720706,0.08886719,0
112,-1.1333008,-0.2734375,0.1003418,0
113,-1.0817871,-0.20166017,0.14916992,0
114,-1.0612793,-0.17651367,0.20629883,0
115,-1.0141602,-0.20996094,0.2775879,0
116,-0.9111328,-0.23828126,0.2993164,0
117,-0.7341309,-0.30078128,0.27270508,0
118,-0.7331543,-0.45312503,0.34570312,0
119,-0.65600586,-0.48364258,0.3774414,0
120,-0.6740723,-0.5546875,0.36083987,0
121,-0.83520514,-0.5930176,0.37451172,0
122,-1.1201172,-0.6086426,0.34375,0
123,-1.0776367,-0.5300293,0.13012695,0
124,-0.8149414,-0.5749512,0.11010742,0
125,-0.72241217,-0.5449219,0.1237793,0
126,-0.548584,-0.53393555,0.1213379,0
127,-0.5263672,-0.55371094,0.12207032,0
128,-0.5822754,-0.578125,0.15014648,0
129,-0.5966797,-0.57250977,0.1706543,0
130,-0.5612793,-0.4685059,0.111572266,0
131,-0.72241217,-0.43701175,0.114990234,0
132,-0.9602051,-0.484375,0.1821289,0
133,-1.0361328,-0.5239258,0.2241211,0
134,-1.1574707,-0.5361328,0.22509767,0
135,-1.1645508,-0.6535645,0.3344727,0
136,-1.2143555,-0.52197266,0.24780275,0
137,-1.3330078,-0.42089847,0.12890625,0
138,-1.4550782,-0.41259766,0.19189453,0
139,-1.4013672,-0.38378906,0.20288086,0
140,-1.3527832,-0.25195312,0.076416016,0
141,-1.2475586,-0.2109375,0.029785158,0
142,-1.076416,-0.26538086,0.053955078,0
143,-0.99609375,-0.2956543,0.072021484,0
144,-0.8215332,-0.28686523,0.07885743,0
145,-0.7770996,-0.26782227,0.08129883,0
146,-0.66503906,-0.21459961,0.085449226,0
147,-0.60498047,-0.19384766,0.06689453,0
148,-0.5917969,-0.21679688,0.025390627,0
149,-0.6123047,-0.34057617,-0.019042969,0
150,-0.6555176,-0.45776367,-0.026611328,0
151,-0.87353516,-0.77685547,-0.05371094,0
152,-0.91650397,-0.7922363,-0.03564453,0
153,-0.91381836,-0.7775879,-0.083740234,0
154,-0.8640137,-0.75805664,-0.11547852,0
155,-0.86230475,-0.6838379,-0.1826172,0
156,-0.8400879,-0.7775879,-0.24658203,0
157,-0.7136231,-0.6059571,-0.116210945,0
158,-0.7136231,-0.6059571,-0.116210945,0
159,-0.64843756,-0.67089844,-0.16796876,0
160,-0.59765625,-0.74487305,-0.1262207,0
161,-0.5788574,-0.70654297,-0.029052736,0
162,-0.5854492,-0.75268555,0.01171875,0
163,-0.5793457,-0.8449707,0.037353516,0
164,-0.5563965,-0.91284186,0.04736328,0
165,-0.5744629,-0.9509278,0.07324219,0
166,-0.6872559,-0.9379883,0.09838867,0
167,-0.68896484,-0.87255865,0.06591797,0
168,-0.6430664,-0.7795411,0.047851566,0
169,-0.6984863,-0.829834,-0.010253906,0
170,-0.7443848,-0.8405762,-0.03930664,0
171,-0.7902832,-0.8137207,-0.055664062,0
172,-0.7368164,-0.68481445,-0.052490234,0
173,-0.7368164,-0.68481445,-0.052490234,0
174,-0.6530762,-0.6796875,0.006347657,0
175,-0.63085943,-0.6835938,0.012451172,0
176,-0.5991211,-0.6738281,-0.012451172,0
177,-0.5883789,-0.7595215,0.039062504,0
178,-0.55249023,-0.7741699,0.068603516,0
179,-0.517334,-0.78344727,0.089111336,0
180,-0.49975586,-0.7773438,0.13134766,0
181,-0.5144043,-0.7392579,0.1303711,0
182,-0.5632324,-0.72631836,0.12866211,0
183,-0.70532227,-0.73120123,0.12573242,0
184,-0.70532227,-0.73120123,0.12573242,0
185,-0.784668,-0.8503418,-0.005126953,0
186,-0.784668,-0.8503418,-0.005126953,0
187,-0.784668,-0.8503418,-0.005126953,0
188,-0.8869629,-0.9379883,-0.01928711,0
189,-0.8869629,-0.9379883,-0.01928711,0
190,-0.74877936,-0.93554693,0.1237793,0
191,-0.74877936,-0.93554693,0.1237793,0
192,-0.9265137,-0.74584967,0.055175785,0
193,-0.9265137,-0.74584967,0.055175785,0
194,-0.642334,-0.6733399,-0.037109375,0
195,-0.642334,-0.6733399,-0.037109375,0
196,-0.3635254,-0.546875,0.07885743,0
197,-0.3635254,-0.546875,0.07885743,0
198,-0.40795898,-0.57055664,0.1027832,0
199,-0.38354495,-0.709961,0.20117188,0
200,-0.4248047,-0.7036133,0.21997072,0
201,-0.4248047,-0.7036133,0.21997072,0
202,-0.50390625,-0.7912598,0.22631836,0
203,-0.78906256,-0.7275391,0.08984376,0
204,-0.95996094,-0.80615234,-0.037109375,0
205,-0.9711914,-0.7810059,-0.048583988,0
206,-0.8474121,-0.6335449,0.005615235,0
207,-0.79541016,-0.58740234,0.003662109,0
208,-0.7326661,-0.51464844,-0.032226562,0
209,-0.7106934,-0.42016605,0.022705078,0
210,-0.70190436,-0.4572754,0.057128906,0
211,-0.7746582,-0.56518555,0.030761719,0
212,-0.7434082,-0.5046387,0.025634766,0
213,-0.770752,-0.45214844,0.06518555,0
214,-0.93652344,-0.52319336,0.09814453,0
215,-1.0097656,-0.58203125,0.12207032,0
216,-0.8203125,-0.62841797,0.048339844,0
217,-0.73657227,-0.63134766,0.11352539,0
218,-0.75,-0.62475586,0.17285156,0
219,-0.8964844,-0.5109863,0.140625,0
220,-0.98681647,-0.60791016,0.15209961,0
221,-0.9782715,-0.49829102,0.1574707,0
222,-0.78271484,-0.3681641,0.08691407,0
223,-0.69165045,-0.36938477,0.043945312,0
224,-0.69140625,-0.425293,0.03833008,0
225,-0.7106934,-0.3718262,0.040771484,0
226,-0.68969727,-0.30883792,0.033203125,0
227,-0.7453613,-0.26538086,0.08691407,0
228,-0.83862305,-0.3381348,0.083496094,0
229,-0.89282227,-0.40942383,0.01586914,0
230,-0.9538575,-0.4892578,0.055664062,0
231,-0.9782715,-0.1496582,-0.057861328,0
232,-0.9553223,-0.15527344,-0.3083496,0
233,-1.0151367,-0.20532228,-0.4814453,0
234,-1.019043,-0.07812501,-0.4777832,0
235,-1.1474609,-0.2631836,-0.25683594,0
236,-1.1474609,-0.2631836,-0.25683594,0
237,-1.0151367,-0.44995117,-0.44384766,0
238,-0.9394531,-0.36279297,-0.3540039,0
239,-0.9892578,-0.3400879,-0.1640625,0
240,-1.0056152,-0.24389648,-0.10498047,0
241,-1.0092773,-0.21533203,-0.109375,0
242,-0.95678717,-0.19848633,-0.3166504,0
243,-0.95947266,-0.2763672,-0.3071289,0
244,-0.9650879,-0.30249023,-0.24853517,0
245,-0.9445801,-0.3269043,-0.22167969,0
246,-0.91967773,-0.28173828,-0.234375,0
247,-0.9211426,-0.2463379,-0.31054688,0
248,-0.9313965,-0.21801758,-0.37158203,0
249,-0.94213873,-0.19921875,-0.3869629,0
250,-0.96655273,-0.22363283,-0.33007815,0
251,-0.9724121,-0.21630861,-0.32543945,0
252,-0.96923834,-0.21044923,-0.32739258,0
253,-0.9482422,-0.16381836,-0.36303714,0
254,-0.9411621,-0.18408205,-0.37402347,0
255,-0.92626953,-0.23754884,-0.29003906,0
256,-0.9321289,-0.22143556,-0.26342773,0
257,-0.93237305,-0.2060547,-0.28198242,0
258,-0.93310547,-0.1875,-0.30541992,0
259,-0.94921875,-0.17871094,-0.31591797,0
260,-0.95336914,-0.15942383,-0.33007815,0
261,-0.94384766,-0.16284181,-0.33666995,0
262,-0.92602545,-0.17626953,-0.3112793,0
263,-0.9279785,-0.20043945,-0.3117676,0
264,-0.9387207,-0.20043945,-0.29589844,0
265,-0.9450684,-0.18408205,-0.28881836,0
266,-0.9343262,-0.17138672,-0.3110352,0
267,-0.93334967,-0.17114258,-0.3081055,0
268,-0.93969727,-0.19628906,-0.2998047,0
269,-0.94750977,-0.18652344,-0.30493164,0
270,-0.935791,-0.16430666,-0.32275394,0
271,-0.9436036,-0.18237305,-0.31567383,0
272,-0.94555664,-0.18847658,-0.30932617,0
273,-0.9450684,-0.1821289,-0.30639648,0
274,-0.9343262,-0.18139648,-0.2998047,0
275,-0.93310547,-0.18994142,-0.2993164,0
276,-0.9436036,-0.19506837,-0.3046875,0
277,-0.92993164,-0.18945312,-0.31982425,0
278,-0.93334967,-0.18530273,-0.31689456,0
279,-0.9414063,-0.19360353,-0.30664065,0
280,-0.93042,-0.19921875,-0.3149414,0
281,-0.9284668,-0.18725586,-0.30004886,0
282,-0.9340821,-0.1784668,-0.29467773,0
283,-0.93603516,-0.1784668,-0.31079102,0
284,-0.9404297,-0.18139648,-0.31274414,0
285,-0.9411621,-0.1977539,-0.3081055,0
286,-0.9404297,-0.1977539,-0.30541992,0
287,-0.9377442,-0.1772461,-0.30078128,0
288,-0.94555664,-0.18579102,-0.30224612,0
289,-0.94213873,-0.19335938,-0.30273438,0
290,-0.93969727,-0.17944336,-0.30590823,0
291,-0.94189453,-0.17211914,-0.30932617,0
292,-0.9338379,-0.19604492,-0.30004886,0
293,-0.93310547,-0.20874023,-0.29907227,0
294,-0.9370118,-0.19848633,-0.3034668,0
295,-0.9321289,-0.19458008,-0.30908203,0
296,-0.9406739,-0.17285156,-0.3044434,0
297,-0.93969727,-0.1772461,-0.2998047,0
298,-0.94213873,-0.171875,-0.30908203,0
299,-0.9406739,-0.19287111,-0.3071289,0
300,-0.93530273,-0.2006836,-0.29541016,0
301,-0.9321289,-0.17578125,-0.30249023,0
302,-0.94018555,-0.18554689,-0.30395508,0
303,-0.9423828,-0.19262695,-0.3044434,0
304,-0.9445801,-0.2023926,-0.29418945,0
305,-0.9394531,-0.19311523,-0.30322266,0
306,-0.9377442,-0.18383789,-0.31079102,0
307,-0.9387207,-0.17309572,-0.30981445,0
308,-0.9377442,-0.189209,-0.31152344,0
309,-0.9348145,-0.2023926,-0.31030276,0
310,-0.9301758,-0.20703125,-0.30615234,0
311,-0.93554693,-0.1723633,-0.31713867,0
312,-0.93554693,-0.1723633,-0.31713867,0
313,-0.9301758,-0.1772461,-0.3044434,0
314,-0.9301758,-0.1772461,-0.3044434,0
315,-0.93554693,-0.20166017,-0.31030276,0
316,-0.9411621,-0.19726564,-0.29858398,0
317,-0.94189453,-0.17529298,-0.30200195,0
318,-0.93969727,-0.17114258,-0.30566406,0
319,-0.9384766,-0.16894531,-0.31054688,0
320,-0.94750977,-0.17944336,-0.3083496,0
321,-0.9448242,-0.17773438,-0.3117676,0
322,-0.93652344,-0.16479492,-0.30566406,0
323,-0.93994147,-0.17358398,-0.3017578,0
324,-0.93969727,-0.18432617,-0.30493164,0
325,-0.9321289,-0.20800781,-0.29711914,0
326,-0.9375,-0.17504883,-0.30566406,0
327,-0.9375,-0.16894531,-0.32299805,0
328,-0.9411621,-0.17651367,-0.3249512,0
329,-0.9411621,-0.18334962,-0.3100586,0
330,-0.9375,-0.16455078,-0.3083496,0
331,-0.92993164,-0.18676758,-0.30981445,0
332,-0.9404297,-0.18481447,-0.3081055,0
333,-0.94091797,-0.1743164,-0.31420898,0
334,-0.9379883,-0.17089845,-0.3117676,0
335,-0.9301758,-0.18310547,-0.3137207,0
336,-0.9411621,-0.18603516,-0.30541992,0
337,-0.9394531,-0.17993164,-0.30883792,0
338,-0.9377442,-0.17016603,-0.30419922,0
339,-0.94311523,-0.16845703,-0.3076172,0
340,-0.94311523,-0.16845703,-0.3076172,0
341,-0.94311523,-0.16845703,-0.3076172,0
342,-0.94750977,-0.18652344,-0.31298828,0
343,-0.94750977,-0.18652344,-0.31298828,0
344,-0.9411621,-0.19018555,-0.30297855,0
345,-0.9411621,-0.19018555,-0.30297855,0
346,-0.94311523,-0.17407227,-0.31274414,0
347,-0.94311523,-0.17407227,-0.31274414,0
348,-0.9367676,-0.17333984,-0.31250003,0
349,-0.9367676,-0.17333984,-0.31250003,0
350,-0.9367676,-0.16967773,-0.3100586,0
351,-0.9367676,-0.16967773,-0.3100586,0
352,-0.9328613,-0.18310547,-0.30664065,0
353,-0.9375,-0.16674805,-0.3044434,0
354,-0.93920904,-0.17675783,-0.3112793,0
355,-0.93920904,-0.17675783,-0.3112793,0
356,-0.93652344,-0.17480469,-0.3146973,0
357,-0.93725586,-0.1706543,-0.3034668,0
358,-0.93969727,-0.18139648,-0.30590823,0
359,-0.9382324,-0.18017578,-0.30957034,0
360,-0.94018555,-0.17382814,-0.31518555,0
361,-0.9370118,-0.1789551,-0.3076172,0
362,-0.9348145,-0.17456056,-0.30541992,0
363,-0.9411621,-0.17968751,-0.30688477,0
364,-0.9379883,-0.18554689,-0.30737308,0
365,-0.93725586,-0.17285156,-0.30590823,0
366,-0.9406739,-0.1789551,-0.3112793,0
367,-0.94018555,-0.18530273,-0.31445312,0
368,-0.944336,-0.18652344,-0.30981445,0
369,-0.94213873,-0.1821289,-0.30688477,0
370,-0.9453125,-0.18237305,-0.30566406,0
371,-0.9387207,-0.16967773,-0.3100586,0
372,-0.93652344,-0.16723634,-0.31225586,0
373,-0.9238282,-0.17797852,-0.30419922,0
374,-0.8981934,-0.14379883,-0.31933594,0
375,-0.8945313,-0.1550293,-0.3005371,0
376,-0.9677735,-0.21582031,-0.2426758,0
377,-1.0002441,-0.24121095,-0.27929688,0
378,-1.0185547,-0.2319336,-0.34594727,0
379,-0.99926764,-0.21313477,-0.3569336,0
380,-0.9433594,-0.15795898,-0.34252933,0
381,-0.9248047,-0.095947266,-0.3244629,0
382,-0.9143067,-0.11425781,-0.3071289,0
383,-0.91259766,-0.1303711,-0.2980957,0
384,-0.91259766,-0.1303711,-0.2980957,0
385,-0.9394531,-0.17919922,-0.29711914,0
386,-0.9394531,-0.17919922,-0.29711914,0
387,-0.935791,-0.17700195,-0.30493164,0
388,-0.95336914,-0.19458008,-0.28442383,0
389,-0.97949225,-0.189209,-0.25854492,0
390,-0.98339844,-0.1784668,-0.26660156,0
391,-0.9562988,-0.1887207,-0.28100586,0
392,-0.9682617,-0.22070314,-0.27539062,0
393,-0.9904786,-0.2319336,-0.26513672,0
394,-1.0053711,-0.20361328,-0.26049805,0
395,-1.0637207,-0.2355957,-0.26000977,0
396,-1.09375,-0.27172852,-0.25195312,0
397,-1.0849609,-0.28686523,-0.24145508,0
398,-1.045166,-0.2854004,-0.25170898,0
399,-1.0300293,-0.28149414,-0.24975586,0
400,-1.032959,-0.24853517,-0.22851562,0
401,-1.0603027,-0.26611328,-0.19628906,0
402,-0.9760742,-0.29492188,-0.16381836,0
403,-0.93359375,-0.29785156,-0.1381836,0
404,-0.8972168,-0.22509767,-0.11767579,0
405,-0.9042969,-0.34375,-0.05834961,0
406,-0.9291992,-0.37158203,-0.032470703,0
407,-0.89501953,-0.39941406,-0.0234375,0
408,-0.86596686,-0.2919922,-0.013671875,0
409,-0.8469239,-0.37768558,0.029785158,0
410,-0.86889654,-0.52905273,0.10498047,0
411,-0.86938477,-0.39941406,0.092773445,0
412,-0.8027344,-0.4150391,0.005859375,0
413,-0.7023926,-0.5720215,-0.09375,0
414,-0.73217773,-0.5151367,-0.2541504,0
415,-0.71240234,-0.66845703,-0.4187012,0
416,-0.64111334,-1.0891113,-0.43066406,0
417,-0.6203613,-0.86328125,-0.37109378,0
418,-0.6499024,-0.8515625,-0.2998047,0
419,-0.64477545,-0.7636719,-0.1760254,0
420,-0.61083984,-0.74780273,-0.15185548,0
421,-0.6047363,-0.75,-0.124267586,0
422,-0.6088868,-0.7326661,-0.0925293,0
423,-0.56884766,-0.6901856,-0.081054695,0
424,-0.6628418,-0.63159186,-0.27246094,0
425,-0.56469727,-0.7402344,-0.16113281,0
426,-0.59643555,-0.7670899,0.006103516,0
427,-0.49072266,-1.1210938,-0.060302738,0
428,-0.38427737,-0.67187506,-0.107666016,0
429,-0.27270508,-0.8532715,0.02368164,0
430,-0.25610352,-0.7988281,0.059326172,0
431,-0.41284183,-0.89868164,0.024902344,0
432,-0.38793948,-0.8376465,0.017333984,0
433,-0.3278809,-0.7727051,0.05004883,0
434,-0.46533203,-0.81591797,0.07373047,0
435,-0.44921875,-0.7741699,0.083496094,0
436,-0.34643555,-0.5852051,0.080566406,0
437,-0.49951172,-0.5600586,0.23583984,0
438,-0.40893555,-0.5007324,0.17944336,0
439,-0.13989258,-0.49389648,0.23022462,0
440,-0.15356445,-0.3737793,0.20971681,0
441,-0.17773438,-0.1940918,0.11914063,0
442,-0.8034668,-0.8376465,0.32373047,0
443,-1.4978027,-1.1154785,0.44604492,0
444,-1.3459474,-0.41235352,0.41992188,0
445,-1.0776367,-0.45703125,0.42016605,0
446,-0.9416504,-0.9143067,0.4753418,0
447,-0.79199225,-0.5678711,0.3605957,0
448,-0.5961914,-0.44653323,-0.08837891,0
449,-0.61157227,-0.24804688,-0.100830086,0
450,-0.6489258,-0.23510742,-0.0979004,0
451,-0.8171387,-0.35839844,0.20214844,0
452,-0.8847656,-0.20800781,0.27783203,0
453,-0.9863281,-0.3076172,0.41918945,0
454,-0.9448242,-0.2685547,0.4638672,0
455,-0.90625006,-0.2631836,0.5942383,0
456,-0.87719727,-0.29345703,0.45507812,0
457,-1.0322266,-0.32641605,0.31982425,0
458,-1.2004395,-0.43945312,0.26367188,0
459,-1.1748047,-0.51904297,0.2121582,0
460,-1.0444336,-0.60913086,0.19482422,0
461,-0.8671875,-0.29370117,0.13964844,0
462,-0.875,-0.6528321,-0.012207031,0
463,-0.8935547,-0.5148926,0.072509766,0
464,-0.958252,-0.43066406,0.17480469,0
465,-0.9604493,-0.44995117,0.18823242,0
466,-0.94921875,-0.52197266,0.14404297,0
467,-0.8642578,-0.45312503,0.11767579,0
468,-0.6799317,-0.42871094,-0.12890625,0
469,-0.6799317,-0.42871094,-0.12890625,0
470,-0.6799317,-0.42871094,-0.12890625,0
471,-0.6799317,-0.42871094,-0.12890625,0
472,-0.60522467,-0.32836914,0.045410156,0
473,-0.87719727,-0.29077148,0.26757812,0
474,-0.87719727,-0.29077148,0.26757812,0
475,-0.89306647,-0.33129883,0.30322266,0
476,-0.98046875,-0.6403809,0.15625001,0
477,-1.074707,-0.59350586,0.11303711,0
478,-1.0961914,-0.50097656,0.1274414,0
479,-1.0961914,-0.50097656,0.1274414,0
480,-1.0961914,-0.50097656,0.1274414,0
481,-0.82568365,-0.4216309,0.1381836,0
482,-0.82568365,-0.4216309,0.1381836,0
483,-0.82568365,-0.4216309,0.1381836,0
484,-0.9301758,-0.49536133,0.095947266,0
485,-0.84521484,-0.41357425,0.095458984,0
486,-0.69458014,-0.378418,0.171875,0
487,-0.66552734,-0.34448242,0.1340332,0
488,-0.7006836,-0.3786621,0.063964844,0
489,-0.8039551,-0.3076172,0.08959961,0
490,-0.7561036,-0.2524414,0.07421875,0
491,-0.6689454,-0.26733398,0.063964844,0
492,-0.87597656,-0.3618164,0.13452148,0
493,-1.0163574,-0.3813477,0.120605476,0
494,-1.0163574,-0.3813477,0.120605476,0
495,-1.0163574,-0.3813477,0.120605476,0
496,-1.064209,-0.32543945,0.19970703,0
497,-1.064209,-0.32543945,0.19970703,0
498,-0.95410156,-0.2841797,0.0913086,0
499,-0.95410156,-0.2841797,0.0913086,0
500,-1.0144043,-0.37304688,0.06665039,0
501,-1.0144043,-0.37304688,0.06665039,0
502,-1.2861328,-0.61865234,0.13061523,0
503,-1.2861328,-0.61865234,0.13061523,0
504,-1.3527832,-0.61181647,0.10156251,0
505,-1.3527832,-0.61181647,0.10156251,0
506,-0.94750977,-0.4421387,0.01123047,0
507,-0.47705078,-0.4013672,-0.6262207,0
508,-0.8178711,-1.1210938,-0.5239258,0
509,-0.8178711,-1.1210938,-0.5239258,0
510,-1.0085449,-0.86035156,-0.11694337,0
511,-0.56591797,-0.2109375,-0.13842773,0
512,-0.8496094,-0.7548828,0.27783203,0
513,-1.0358887,-0.94262695,0.74780273,0
514,-1.0349121,-1.0910645,0.8713379,0
515,-1.1618652,-1.5839845,0.9274903,0
516,-1.3845215,-2.3010254,0.8391113,0
517,-1.1325684,-2.4567873,1.1975098,0
518,-0.9255371,-2.1687012,0.9580078,0
519,-0.6557618,-1.9050293,0.78906256,0
520,-0.5600586,-1.4135742,0.6020508,0
521,-0.49243164,-1.0651855,0.36499023,0
522,-0.41845703,-0.92993164,-0.15209961,0
523,-0.7802735,-0.93237305,-0.18994142,0
524,-0.9038086,-0.68408203,-0.3344727,0
525,-0.9309082,-1.1428223,-0.57421875,0
526,-1.1757812,-0.89868164,-0.54248047,0
527,-1.2360841,-0.68798834,-0.3581543,0
528,-1.4570312,-0.27075195,-0.079833984,0
529,-1.0354004,0.9526367,0.09350587,0
530,-0.99658203,2.9597168,0.53027344,0
531,-0.63183594,5.5639653,-0.12402344,0
532,-0.3984375,7.0786138,-0.20214844,0
533,-1.1328125,5.531494,0.48046875,0
534,-1.4814454,2.9194336,0.28857422,0
535,-1.5776367,0.9406739,0.11035157,0
536,-4.1210938,-4.124756,1.5310059,0
537,-1.0515137,-1.7834473,-2.60083,0
538,2.852539,-2.2197266,-3.8410647,0
539,5.095459,-2.5905762,-3.2363281,0
540,-1.1135254,-3.8764648,-0.8300782,0
541,-0.140625,-2.479248,-1.848877,0
542,-1.9526367,-2.8742678,-0.71606445,0
543,-2.4067383,-0.35595703,0.21020508,0
544,-1.828125,0.6254883,-0.42651367,0
545,-4.401367,7.9353027,-1.9702148,0
546,-1.4323732,5.959961,-1.2929688,0
547,-1.494873,4.5546875,0.19067384,0
548,-2.3652344,2.0632324,0.18554689,0
549,-2.7268066,1.2817383,0.35742188,0
550,-4.1638184,-2.1242676,0.3579102,0
551,-2.7153323,-3.694336,-1.7734375,0
552,-0.6633301,-2.7663574,-1.4655762,0
553,0.5644531,-4.821533,-1.2753906,0
554,0.49975586,-4.7834473,-1.0981445,0
555,0.6237793,-2.9016113,0.17675783,0
556,0.25390625,-3.084961,0.24902344,0
557,-0.8264161,-1.2436523,0.7963868,0
558,-1.4768066,-1.0410156,0.87719727,0
559,-1.9606934,0.106933594,0.4453125,0
560,-1.968506,0.34570312,0.37304688,0
561,-2.2080078,1.1162109,0.095947266,0
562,-2.2583008,2.858887,-0.6323243,0
563,-1.8356934,3.4338381,-0.54663086,0
564,-1.4213868,4.071045,-0.8381348,0
565,-1.654297,2.7351077,-0.15185548,0
566,-1.6948242,2.5405273,0.11328126,0
567,-2.0439453,2.0046387,0.5354004,0
568,-1.979248,0.53100586,0.70532227,0
569,-1.9089355,0.4572754,0.5456543,0
570,-2.8222659,-0.34057617,0.15405275,0
571,-1.1381836,-2.008545,-0.6230469,0
572,-0.11010742,-2.7609863,-0.7944336,0
573,0.56103516,-3.3093264,-0.60083014,0
574,0.74584967,-3.072998,-0.24829102,0
575,0.71215826,-2.756348,-0.18334962,0
576,-0.23168947,-3.8574219,-0.6904297,0
577,-1.0114746,-2.5407715,-0.47314453,0
578,-1.4804688,-1.7519531,-0.7407227,0
579,-1.4143066,-0.27392578,-0.8078613,0
580,-2.161377,2.5087893,-0.88671875,0
581,-2.161377,2.5087893,-0.88671875,0
582,-2.2094727,4.4331055,-1.4885254,0
583,-1.4318848,4.9326177,-2.105713,0
584,-2.392334,4.062256,-1.7373047,0
585,-1.6350098,2.0361328,-1.0461426,0
586,-1.9082031,1.0651855,-0.5563965,0
587,-2.2131348,-0.09887695,0.7604981,0
588,-2.4829102,-0.61376953,0.5671387,0
589,-0.25683594,-2.9191895,-0.41088867,0
590,0.25146484,-2.7622073,0.05493164,0
591,0.3383789,-3.97876,-0.15014648,0
592,0.7663575,-2.3632812,0.75170904,0
593,0.13891602,-3.063965,1.0539551,0
594,0.10058594,-1.4050293,1.411377,0
595,-1.2172852,-1.8305664,1.6152344,0
596,-1.5107423,-1.5087891,1.4589844,0
597,-2.723389,-0.5061035,0.52368164,0
598,-2.7016602,1.4291992,-0.7106934,0
599,-2.4538577,3.980713,-2.1137695,0
600,-2.0285645,4.5144043,-2.9228516,0
601,-1.6313477,5.1726074,-1.3493652,0
602,-1.7983398,3.2814944,-1.0480957,0
603,-1.7983398,3.2814944,-1.0480957,0
604,-3.0800784,0.8898926,0.9904786,0
605,-3.3937988,0.3552246,0.63793945,0
606,-3.974121,-0.40356445,0.2939453,0
607,-1.1240234,-2.196045,-0.29248047,0
608,-0.5605469,-2.3742676,-0.78637695,0
609,0.43945312,-3.1474612,-1.1318359,0
610,0.7561036,-1.6501465,-0.54418945,0
611,0.5456543,-1.579834,-0.52563477,0
612,0.25952148,-1.6533203,-0.32250977,0
613,0.05297852,-0.6867676,-0.056396484,0
614,-0.05834961,-0.52197266,0.10156251,0
615,0.08862305,-0.5830078,0.28955078,0
616,0.22241211,-0.5720215,0.09838867,0
617,0.15136719,-0.45385745,0.38061526,0
618,0.22924805,-0.6010742,0.48779297,0
619,0.2019043,-0.49291992,0.24365234,0
620,0.24438477,-0.4453125,0.54907227,0
621,0.35766602,-0.1940918,0.31689456,0
622,0.5932617,0.0871582,0.29248047,0
623,0.84594727,0.38183594,-0.020263674,0
624,0.10571289,-0.3803711,1.1589355,0
625,-0.4711914,0.1723633,0.7062989,0
626,-0.99731445,-0.36547852,1.3496095,0
627,-0.99731445,-0.36547852,1.3496095,0
628,-0.50268555,-0.09326172,0.5969238,0
629,-1.3537598,0.4050293,1.1398926,0
630,-1.9492188,-0.80151373,1.0319824,0
631,-1.3571777,-1.1645508,0.6020508,0
632,-1.218506,-0.3935547,0.53515625,0
633,-1.3688965,-0.40698245,0.5395508,0
634,-1.438965,-0.7041016,0.43896484,0
635,-1.3107911,-0.9680176,0.20727539,0
636,-1.1376953,-0.6894532,0.14794922,0
637,-0.9685059,-0.47705078,0.22070314,0
638,-0.8776856,-0.3779297,0.12036133,0
639,-0.8703614,-0.30737308,0.034423828,0
640,-0.8937989,-0.2590332,0.02685547,0
641,-0.82202154,-0.3220215,-0.025634766,0
642,-0.8000489,-0.29663086,-0.0793457,0
643,-0.803711,-0.15454102,0.018554688,0
644,-1.3120117,-0.41650394,0.112548836,0
645,-1.3625488,-0.21948242,-0.17382814,0
646,-1.0339355,-0.23681642,-0.35839844,0
647,-0.75341797,-0.2919922,-0.22705078,0
648,-0.75341797,-0.2919922,-0.22705078,0
649,-0.76489264,-0.34204102,-0.15136719,0
650,-0.76489264,-0.34204102,-0.15136719,0
651,-0.86938477,-0.38574222,-0.2126465,0
652,-0.86938477,-0.38574222,-0.2126465,0
653,-0.84619147,-0.31152344,-0.24804688,0
654,-0.8720703,-0.28710938,-0.20141602,0
655,-0.8720703,-0.28710938,-0.20141602,0
656,-0.9836426,-0.39086917,-0.1977539,0
657,-0.9836426,-0.39086917,-0.1977539,0
658,-0.9318848,-0.32104492,-0.24707033,0
659,-0.9016113,-0.703125,-0.27001953,0
660,-0.80908203,-0.11376953,-0.1472168,0
661,-0.80908203,-0.11376953,-0.1472168,0
662,-0.8803711,0.004150391,-0.089111336,0
663,-0.95214844,-0.69873047,-0.29785156,0
664,-1.0678711,-0.5461426,-0.17480469,0
665,-0.78906256,-0.5019531,-0.004150391,0
666,-0.8215332,-0.35009766,-0.012207031,0
667,-1.010498,-0.6528321,-0.020019531,0
668,-0.9621582,-0.6010742,-0.005126953,0
669,-0.8503418,-0.43676758,-0.080078125,0
670,-0.90722656,-0.41137698,-0.036621094,0
671,-0.88964844,-0.32910156,-0.01586914,0
672,-0.91186523,-0.31884766,-0.030029297,0
673,-0.8054199,-0.26733398,-0.076416016,0
674,-0.75341797,-0.14575195,-0.08203125,0
675,-0.921875,-0.29003906,0.10009766,0
676,-0.9094238,-0.31079102,0.09326172,0
677,-0.8618164,-0.30297855,0.06616211,0
678,-0.8679199,-0.22387695,0.14990234,0
679,-0.91210943,-0.2734375,0.2409668,0
680,-0.9069825,-0.21533203,0.22705078,0
681,-0.91259766,-0.20532228,0.20898439,0
682,-0.9201661,-0.18627931,0.25146484,0
683,-1.0620117,-0.18774416,0.26757812,0
684,-1.1611328,-0.23852539,0.2685547,0
685,-1.1455078,-0.3269043,0.2890625,0
686,-1.0803223,-0.29638672,0.2734375,0
687,-1.034668,-0.1875,0.18383789,0
688,-1.0935059,-0.08325196,0.09399414,0
689,-1.1245117,-0.064941406,0.0625,0
690,-1.1711426,-0.108886726,0.046386722,0
691,-1.3095703,-0.21508789,0.029785158,0
692,-1.3706055,-0.27124023,0.04736328,0
693,-1.2409668,-0.20336914,0.07812501,0
694,-1.0686035,-0.1953125,0.11010742,0
695,-1.0483398,-0.29907227,0.1027832,0
696,-0.92895514,-0.28686523,0.072265625,0
697,-0.87915045,-0.3203125,0.06689453,0
698,-0.80322266,-0.43701175,0.060302738,0
699,-0.6672363,-0.67773443,-0.021728517,0
700,-0.5515137,-0.83984375,-0.050781254,0
701,-0.3569336,-0.58740234,0.009033203,0
702,-0.31396487,-0.5671387,0.12207032,0
703,-0.4282227,-0.64917,0.19726564,0
704,-0.3984375,-0.6296387,0.15283203,0
705,-0.378418,-0.6347656,0.1237793,0
706,-0.52612305,-0.7607422,0.10668946,0
707,-0.6894532,-0.8400879,0.08032227,0
708,-0.76855475,-0.78881836,0.03564453,0
709,-0.74487305,-0.65966797,0.02709961,0
710,-0.6264649,-0.6506348,0.07812501,0
711,-0.64501953,-0.6901856,0.081054695,0
712,-0.61865234,-0.6765137,0.021728517,0
713,-0.770752,-0.67114264,-0.022705078,0
714,-0.7807617,-0.54467773,0.07958985,0
715,-0.7368164,-0.51000977,0.087402344,0
716,-0.8676758,-0.5925293,0.084228516,0
717,-1.0930176,-0.7873535,0.085449226,0
718,-0.8300782,-0.5270996,0.2192383,0
719,-0.72460943,-0.43603516,0.27612305,0
720,-0.67187506,-0.31860352,0.27807617,0
721,-0.78881836,-0.3244629,0.18432617,0
722,-0.8908692,-0.39306644,0.19653322,0
723,-0.9411621,-0.4111328,0.21533203,0
724,-0.9667969,-0.36767578,0.24365234,0
725,-1.0344238,-0.35620117,0.29125977,0
726,-1.1452637,-0.3244629,0.29614258,0
727,-1.1618652,-0.32104492,0.29492188,0
728,-1.0739746,-0.2722168,0.28686523,0
729,-0.92944336,-0.19458008,0.2614746,0
730,-0.8823242,-0.15307617,0.24780275,0
731,-0.89941406,-0.14257812,0.25170898,0
732,-0.9140625,-0.21337892,0.29760742,0
733,-0.8769532,-0.2800293,0.31152344,0
734,-0.86499023,-0.31518555,0.31030276,0
735,-0.93530273,-0.2854004,0.3251953,0
736,-0.9448242,-0.26464844,0.31762698,0
737,-0.9250488,-0.22705078,0.33325195,0
738,-0.91650397,-0.20532228,0.27807617,0
739,-0.9321289,-0.20996094,0.22021484,0
740,-0.9177246,-0.22802736,0.2109375,0
741,-0.9106446,-0.23535158,0.2006836,0
742,-0.9453125,-0.23852539,0.21606445,0
743,-0.99243164,-0.20141602,0.20361328,0
744,-0.99243164,-0.189209,0.1706543,0
745,-0.99243164,-0.189209,0.1706543,0
746,-0.98950195,-0.21704103,0.18041994,0
747,-0.9675293,-0.24340822,0.17968751,0
748,-0.96313477,-0.25952148,0.171875,0
749,-0.9658203,-0.25024414,0.15673828,0
750,-0.9580078,-0.236084,0.14550781,0
751,-0.95581055,-0.24389648,0.140625,0
752,-0.9345703,-0.24340822,0.1340332,0
753,-0.92626953,-0.25756836,0.13232422,0
754,-0.9509278,-0.24072266,0.115234375,0
755,-0.9921875,-0.24194337,0.111328125,0
756,-1.0471191,-0.25195312,0.1105957,0
757,-1.0317383,-0.26293945,0.110839844,0
758,-1.0092773,-0.26660156,0.11108399,0
759,-0.9812012,-0.23950195,0.11816406,0
760,-0.98242193,-0.2258301,0.12475586,0
761,-0.98950195,-0.2175293,0.12207032,0
762,-0.98217773,-0.21191408,0.1262207,0
763,-0.98339844,-0.2109375,0.13110352,0
764,-0.991211,-0.19726564,0.13012695,0
765,-1.0080566,-0.22045898,0.13476562,0
766,-1.0039062,-0.21020508,0.13061523,0
767,-1.0068359,-0.22729494,0.14331055,0
768,-1.1547852,-0.2294922,0.21337892,0
769,-1.7250977,-0.22216798,0.27319336,0
770,-1.5566406,0.19482422,0.10375977,0
771,-0.7370606,0.010498048,0.18530273,0
772,0.16503908,-0.11230469,0.10742188,0
773,0.513916,-0.33325195,0.055664062,0
774,0.010742188,-0.6921387,0.02709961,0
775,-0.6921387,-0.41455078,-0.003662109,0
776,-0.7858887,-0.2763672,0.009033203,0
777,-1.0981445,-0.123291016,0.04248047,0
778,-1.1496582,-0.1574707,0.029296875,0
779,-1.2675782,-0.17333984,-0.0234375,0
780,-1.0778809,-0.17529298,-0.03491211,0
781,-1.0778809,-0.17529298,-0.03491211,0
782,-1.0915527,-0.18432617,-0.0871582,0
783,-1.0085449,-0.23291016,-0.047119144,0
784,-1.0249023,-0.22241211,-0.03833008,0
785,-1.078125,-0.1953125,-0.037353516,0
786,-1.0478516,-0.18847658,-0.012695313,0
787,-1.0646973,-0.17309572,-0.022949219,0
788,-1.027832,-0.1875,-0.028320314,0
789,-1.0002441,-0.15478517,0.002685547,0
790,-1.0537109,-0.1213379,-0.01586914,0
791,-1.0495605,-0.108886726,-0.029541016,0
792,-1.0168457,-0.05664063,-0.021728517,0
793,-1.0209961,-0.077392586,0.004150391,0
794,-1.0056152,-0.05004883,0.01928711,0
795,-0.970459,-0.06347656,0.04663086,0
796,-0.9929199,-0.085449226,0.05737305,0
797,-1.0356445,-0.0637207,0.055175785,0
798,-1.1098633,-0.08618165,0.057128906,0
799,-1.1088867,-0.11547852,0.06982422,0
800,-1.0251465,-0.116210945,0.0925293,0
801,-1.0251465,-0.116210945,0.0925293,0
802,-1.0246582,-0.13745117,0.12011719,0
803,-1.0246582,-0.13745117,0.12011719,0
804,-1.019043,-0.13867188,0.1418457,0
805,-0.9956055,-0.16650392,0.1821289,0
806,-0.9736329,-0.1772461,0.20117188,0
807,-0.9348145,-0.16992188,0.23364258,0
808,-0.9348145,-0.16992188,0.23364258,0
809,-0.8872071,-0.14575195,0.25561523,0
810,-0.8872071,-0.14575195,0.25561523,0
811,-0.9213867,-0.10058594,0.34887695,0
812,-0.8684082,-0.12866211,0.38330078,0
813,-0.79931647,-0.13671875,0.30590823,0
814,-0.79931647,-0.13671875,0.30590823,0
815,-0.7878418,-0.12719727,0.29003906,0
816,-0.7878418,-0.12719727,0.29003906,0
817,-0.97998047,-0.06762695,0.32006836,0
818,-0.8984375,-0.05371094,0.27978516,0
819,-1.0373535,-0.08959961,0.28442383,0
820,-0.92041016,-0.18847658,0.23779297,0
821,-0.9450684,-0.11914063,0.17993164,0
822,-1.0390625,-0.08764649,0.1508789,0
823,-1.111084,-0.045898438,0.14331055,0
824,-1.0942383,-0.07373047,0.13769531,0
825,-1.0876465,0.009277344,0.1640625,0
826,-1.0959473,-0.020019531,0.18969727,0
827,-1.0817871,-0.029541016,0.18041994,0
828,-0.9746094,-0.11645508,0.16992188,0
829,-1.0246582,-0.19018555,0.39086917,0
830,-0.8469239,-0.04248047,0.16064455,0
831,-0.80688477,-0.043701172,0.10156251,0
832,-0.97314453,-0.030029297,0.19311523,0
833,-1.0185547,0.06274414,0.23022462,0
834,-0.9650879,0.08691407,0.2192383,0
835,-0.7807617,0.03540039,0.16064455,0
836,-0.8642578,0.08325196,0.17041016,0
837,-0.8457031,0.06762695,0.12670898,0
838,-0.80883795,0.068603516,0.11914063,0
839,-0.80883795,0.068603516,0.11914063,0
840,-0.8071289,0.16113281,0.07910156,0
841,-1.0053711,0.15893555,0.15795898,0
842,-0.8010254,0.17089845,0.0859375,0
843,-0.8342285,0.067871094,0.096435554,0
844,-1.192627,0.043701172,0.17944336,0
845,-1.0698242,0.06738281,0.16210939,0
846,-1.088623,0.0871582,0.12597656,0
847,-1.1630859,0.052734375,0.18774416,0
848,-1.197998,-0.03955078,0.35961914,0
849,-0.93896484,0.29248047,0.17822267,0
850,-0.93896484,0.29248047,0.17822267,0
851,-0.9145508,0.1706543,0.7878418,0
852,-0.7753906,0.30493164,0.49804688,0
853,-0.72460943,0.013671875,0.32885742,0
854,-0.6833496,-0.25634766,0.3916016,0
855,-0.6872559,-0.14624023,0.73095703,0
856,-0.76538086,-0.09765625,0.77319336,0
857,-0.7905274,-0.14892578,0.74121094,0
858,-0.75927734,-0.23974611,0.89697266,0
859,-0.6743164,0.06567383,1.1906738,0
860,-0.5432129,0.004638672,1.0598145,0
861,-0.39331055,-0.20703125,0.99731445,0
862,-0.40673828,-0.25463867,0.9780274,0
863,-0.40673828,-0.25463867,0.9780274,0
864,-0.20019533,-0.25732422,1.0505371,0
865,-0.5957031,0.07104492,0.9790039,0
866,-0.044189457,0.47363284,1.0834961,0
867,-0.28295898,0.3549805,0.8544922,0
868,-0.1616211,0.27001953,0.7416992,0
869,0.1003418,0.16113281,0.7341309,0
870,0.19384766,0.1772461,0.8876953,0
871,0.33544922,0.21606445,1.0480957,0
872,0.033447266,-0.44848633,0.83203125,0
873,0.028320314,-0.49487308,0.7910156,0
874,-0.01928711,-0.36010745,0.8186035,0
875,-0.03149414,-0.23754884,0.8676758,0
876,-0.24414064,-0.035888672,1.0522461,0
877,-0.43945312,-0.032714844,0.98339844,0
878,-0.31884766,-0.11914063,1.0229492,0
879,-0.032958984,-0.1315918,1.020752,0
880,-0.25683594,-0.11791992,1.0344238,0
881,-0.13696289,-0.043457035,0.9855957,0
882,-0.16210939,-0.11230469,0.9572754,0
883,-0.13549805,-0.17163087,0.99438477,0
884,-0.11206055,-0.13354492,1.0014648,0
885,-0.07543945,-0.11645508,0.95336914,0
886,-0.08276367,-0.1706543,0.94213873,0
887,-0.1340332,-0.16723634,0.98974615,0
888,-0.072753906,-0.10302735,0.96240234,0
889,-0.07519532,-0.10864258,0.97290045,0
890,-0.0913086,-0.10595704,0.98657227,0
891,-0.075683594,-0.13085938,0.9472657,0
892,-0.08227539,-0.1555176,0.95410156,0
893,-0.09448242,-0.1538086,0.9753418,0
894,-0.084716804,-0.12988281,0.9711914,0
895,-0.092773445,-0.12817383,0.9946289,0
896,-0.10058594,-0.08276367,1.0224609,0
897,-0.09570313,-0.08032227,0.9846192,0
898,-0.10107422,-0.13964844,0.9580078,0
899,-0.11376953,-0.15234375,0.9948731,0
900,-0.083496094,-0.10131836,0.9819336,0
901,-0.095947266,-0.12841797,0.9748535,0
902,-0.103271484,-0.11108399,0.9875489,0
903,-0.084716804,-0.11450195,0.96655273,0
904,-0.08618165,-0.14135742,0.96655273,0
905,-0.09570313,-0.1550293,0.9682617,0
906,-0.10058594,-0.14086914,0.9682617,0
907,-0.089111336,-0.12573242,0.96997076,0
908,-0.08862305,-0.12036133,0.97021484,0
909,-0.087890625,-0.12109375,0.9724121,0
910,-0.09008789,-0.057617188,1.0158691,0
911,-0.09423829,-0.0456543,0.9848633,0
912,-0.09423829,-0.0456543,0.9848633,0
913,-0.10424805,-0.100830086,0.98413086,0
914,-0.068603516,-0.06518555,0.97265625,0
915,-0.09887695,-0.11425781,0.95214844,0
916,0.03173828,-0.09204102,0.90893555,0
917,0.13110352,0.012207031,0.9453125,0
918,0.020751953,-0.06616211,1.0900879,0
919,-0.1652832,-0.14135742,1.0454102,0
920,-0.29296875,-0.11694337,0.98413086,0
921,-0.35766602,-0.11181641,1.0456543,0
922,-0.11425781,-0.06225586,1.0117188,0
923,-0.25463867,-0.05029297,1.0053711,0
924,-0.1772461,-0.055419922,1.0351562,0
925,-0.22143556,0.03149414,1.0554199,0
926,-0.22070314,0.18457031,1.0620117,0
927,-0.16748047,0.1657715,0.9987793,0
928,-0.047119144,0.12231445,0.93042,0
929,-0.015380859,0.15429688,0.8691406,0
930,-0.015380859,0.15429688,0.8691406,0
931,-0.2241211,0.059326172,0.9267579,0
932,-0.38378906,0.068115234,0.8007813,0
933,-0.33300784,-0.07666016,0.69458014,0
934,-0.40600586,-0.626709,1.0178223,0
935,-0.16894531,-0.7304688,0.91259766,0
936,-0.09570313,-0.5629883,0.71899414,0
937,-0.13793945,-0.3178711,1.079834,0
938,0.024658205,-0.10595704,0.9978028,0
939,0.03930664,-0.22094727,1.1159668,0
940,-0.20166017,-0.34399417,0.9042969,0
941,-0.2866211,-0.5620117,0.8010254,0
942,-0.1784668,-0.072021484,0.9714356,0
943,-0.17285156,0.05908203,0.9909668,0
944,-0.1789551,0.16674805,0.98999023,0
945,-0.47436526,-0.17016603,1.0700684,0
946,-0.63720703,-0.24853517,1.0251465,0
947,-0.5,-0.20043945,0.74292,0
948,-0.5839844,-0.30957034,0.71972656,0
949,-0.52685547,-0.1821289,0.7604981,0
950,-0.6430664,-0.18725586,0.7573242,0
951,-0.7800293,-0.31420898,0.7331543,0
952,-0.6564942,-0.033203125,0.5473633,0
953,-0.80908203,0.004394531,0.48315433,0
954,-0.8845215,0.2536621,0.14355469,0
955,-0.8845215,0.2536621,0.14355469,0
956,-0.82250977,0.4572754,0.06982422,0
957,-0.7612305,0.43139648,0.20507812,0
958,-0.7612305,0.43139648,0.20507812,0
959,-1.494873,-0.38574222,0.6567383,0
960,-1.494873,-0.38574222,0.6567383,0
961,-0.89208984,0.010742188,0.31274414,0
962,-0.89208984,0.010742188,0.31274414,0
963,-0.97656256,0.07763672,0.25195312,0
964,-0.97656256,0.07763672,0.25195312,0
965,-1.0065918,0.15283203,0.14575195,0
966,-1.0065918,0.15283203,0.14575195,0
967,-0.982666,0.15332033,0.10864258,0
968,-0.982666,0.15332033,0.10864258,0
969,-0.98779297,0.122558594,0.111572266,0
970,-0.98779297,0.122558594,0.111572266,0
971,-0.9611817,0.17016603,0.16943361,0
972,-0.99365234,0.17919922,0.12670898,0
973,-1.09375,0.06640625,0.33032227,0
974,-1.1923828,-0.11035157,0.6228028,0
975,-1.1943359,-0.05737305,0.50805664,0
976,-1.0615234,-0.033935547,0.08666992,0
977,-0.90966797,0.017089844,-0.08862305,0
978,-1.142334,-0.08398438,-0.07104492,0
979,-1.1638184,-0.20214844,-0.06347656,0
980,-1.2263184,-0.19189453,-0.124267586,0
981,-1.2263184,-0.19189453,-0.124267586,0
982,-1.1513672,-0.058105472,-0.059570316,0
983,-0.9741211,0.097167976,0.18945312,0
984,-0.9382324,0.022949219,0.19824219,0
985,-0.88623047,-0.085449226,0.15576172,0
986,-0.76586914,-0.13793945,0.06640625,0
987,-0.7612305,-0.20581055,0.03515625,0
988,-0.77319336,-0.34448242,0.0859375,0
989,-0.77685547,-0.3952637,0.13696289,0
990,-0.8720703,-0.46899414,0.19262695,0
991,-0.91015625,-0.31250003,0.2019043,0
992,-0.8732911,-0.3251953,0.20703125,0
993,-0.88012695,-0.35644534,0.13183594,0
994,-0.8955078,-0.4255371,0.107910156,0
995,-0.8691406,-0.4685059,0.09472656,0
996,-0.9094238,-0.7373047,-0.17382814,0
997,-0.897461,-0.6933594,-0.19799806,0
998,-0.8166504,-0.4121094,-0.14868164,0
999,-0.79589844,-0.40429688,-0.097167976,0
1000,-0.7963868,-0.56689453,-0.016357422,0
1001,-0.77319336,-0.58081055,0.025878906,0
1002,-0.7932129,-0.3984375,0.025634766,0
1003,-0.8898926,-0.29663086,0.10253906,0
1004,-1.0053711,-0.22387695,0.24023438,0
1005,-1.005127,-0.18847658,0.26953125,0
1006,-0.76831055,-0.1789551,0.23291016,0
1007,-0.66064453,-0.23803711,0.2043457,0
1008,-0.69799805,-0.28393555,0.2241211,0
1009,-0.87255865,-0.35595703,0.27319336,0
1010,-0.9321289,-0.3286133,0.23071289,0
1011,-0.9277344,-0.2685547,0.104492195,0
1012,-0.9379883,-0.21948242,0.08666992,0
1013,-0.90551764,-0.26538086,0.13720703,0
1014,-0.9509278,-0.29125977,0.15307617,0
1015,-1.2246094,-0.19238281,0.12475586,0
1016,-1.1291504,-0.17382814,0.043457035,0
1017,-1.0307617,-0.21069336,0.025146484,0
1018,-1.0249023,-0.19750977,0.043945312,0
1019,-1.0100098,-0.1789551,0.068115234,0
1020,-1.045166,-0.20214844,0.10864258,0
1021,-0.9836426,-0.22924805,0.13500977,0
1022,-0.9074707,-0.26171875,0.16064455,0
1023,-0.9382324,-0.22241211,0.19970703,0
1024,-0.93994147,-0.21801758,0.18334962,0
1025,-0.94750977,-0.2121582,0.18432617,0
1026,-0.98339844,-0.20581055,0.20825197,0
1027,-0.9562988,-0.19897461,0.1977539,0
1028,-0.92309576,-0.21948242,0.19702148,0
1029,-0.8991699,-0.23657227,0.20532228,0
1030,-0.89892584,-0.25952148,0.18017578,0
1031,-0.9160156,-0.27197266,0.16040039,0
1032,-0.9084473,-0.32373047,0.18627931,0
1033,-0.93310547,-0.32348636,0.19677734,0
1034,-0.9301758,-0.31860352,0.18725586,0
1035,-0.9836426,-0.32714847,0.18237305,0
1036,-0.98999023,-0.33740237,0.18969727,0
1037,-0.99658203,-0.3681641,0.18286133,0
1038,-1.0039062,-0.36669925,0.1723633,0
1039,-1.0085449,-0.3400879,0.17114258,0
1040,-1.029541,-0.31201172,0.15527344,0
1041,-1.0842285,-0.28027344,0.14575195,0
1042,-1.0551758,-0.2841797,0.17089845,0
1043,-0.9978028,-0.2841797,0.17016603,0
1044,-1.0073242,-0.27392578,0.1887207,0
1045,-1.0268555,-0.20019533,0.16821289,0
1046,-1.0085449,-0.20874023,0.19287111,0
1047,-0.96337897,-0.2055664,0.2319336,0
1048,-0.8684082,-0.20288086,0.21289062,0
1049,-0.84521484,-0.19970703,0.19091797,0
1050,-0.8354492,-0.20703125,0.19140626,0
1051,-0.8532715,-0.2229004,0.23242189,0
1052,-0.85375977,-0.21313477,0.24389648,0
1053,-0.8552246,-0.21118166,0.24316406,0
1054,-0.8679199,-0.21289062,0.25952148,0
1055,-0.8918457,-0.23876953,0.27441406,0
1056,-0.8579102,-0.2294922,0.28149414,0
1057,-0.83667,-0.24145508,0.30493164,0
1058,-0.92333984,-0.28271484,0.33691406,0
1059,-0.93603516,-0.3647461,0.35229492,0
1060,-0.89868164,-0.43798828,0.26708984,0
1061,-0.9602051,-0.4724121,0.22167969,0
1062,-1.0385742,-0.46606445,0.22143556,0
1063,-1.0793457,-0.4516602,0.27319336,0
1064,-1.03125,-0.35083008,0.23950195,0
1065,-0.99316406,-0.32836914,0.23339844,0
1066,-0.96337897,-0.3615723,0.22436525,0
1067,-0.9423828,-0.40014648,0.21020508,0
1068,-0.9584961,-0.4873047,0.16674805,0
1069,-0.98974615,-0.44335938,0.18896484,0
1070,-0.94555664,-0.45019534,0.14941406,0
1071,-0.9423828,-0.4580078,0.25927734,0
1072,-0.97924805,-0.4946289,0.2841797,0
1073,-0.9108887,-0.4338379,0.39575195,0
1074,-0.7509766,0.27197266,0.40405276,0
1075,-0.78833014,1.3022461,1.2329102,0
1076,-1.1835938,-0.06298828,2.151123,0
1077,-0.58154297,-0.1743164,1.0007324,0
1078,-0.3718262,0.023925783,0.6723633,0
1079,-0.29711914,0.053466797,0.032958984,0
1080,-0.4421387,-0.76171875,0.014404297,0
1081,-0.43798828,-0.81152344,-0.004882813,0
1082,-0.41333008,-0.84936523,-0.2854004,0
1083,-0.29663086,-1.1000977,-0.55566406,0
1084,-0.33593753,-1.1994629,-0.42700195,0
1085,-0.33593753,-1.1994629,-0.42700195,0
1086,-0.43798828,-0.7265625,-0.31567383,0
1087,-0.20117188,-0.77783203,-0.21411134,0
1088,0.055419922,-0.47363284,-0.52001953,0
1089,-0.032226562,-0.40112308,-0.35766602,0
1090,-0.032226562,-0.40112308,-0.35766602,0
1091,-0.032226562,-0.40112308,-0.35766602,0
1092,-0.6179199,-0.58496094,0.016845703,0
1093,-0.111572266,-0.47338867,-0.72167975,0
1094,0.12280274,-0.6838379,-0.87158203,0
1095,0.5336914,-1.1259766,-1.0893555,0
1096,-0.08300781,-1.6984863,0.29882812,0
1097,-0.5708008,-1.2067872,-0.7475586,0
1098,-0.5708008,-1.2067872,-0.7475586,0
1099,-0.5708008,-1.2067872,-0.7475586,0
1100,-0.0546875,-0.545166,-0.43896484,0
1101,-0.22363283,-0.46630862,-0.20751955,0
1102,-0.36279297,-0.4416504,-0.14208984,0
1103,-0.3244629,-0.53686523,-0.15014648,0
1104,-0.2529297,-0.44750977,-0.10961915,0
1105,-0.5239258,-0.52563477,0.75439453,0
1106,-0.77514654,-0.59472656,0.7670899,0
1107,-0.77514654,-0.59472656,0.7670899,0
1108,-0.8273926,-0.43676758,0.61083984,0
1109,-0.8273926,-0.43676758,0.61083984,0
1110,-0.91015625,-0.4018555,0.46606445,0
1111,-0.91015625,-0.4018555,0.46606445,0
1112,-1.0551758,-0.49609375,0.28857422,0
1113,-1.0551758,-0.49609375,0.28857422,0
1114,-1.3051758,-0.62866217,0.26733398,0
1115,-1.3051758,-0.62866217,0.26733398,0
1116,-1.4160156,-0.72998047,0.27001953,0
1117,-1.1298828,-0.3581543,0.33325195,0
1118,-0.9272461,-0.13793945,0.27612305,0
1119,-0.9272461,-0.13793945,0.27612305,0
1120,-0.8806153,-0.28637695,0.20336914,0
1121,-0.8806153,-0.28637695,0.20336914,0
1122,-0.8708496,-0.41381836,0.16625977,0
1123,-0.8708496,-0.41381836,0.16625977,0
1124,-0.89624023,-0.5612793,0.17211914,0
1125,-0.86572266,-0.33007815,0.23095705,0
1126,-0.8955078,-0.29174805,0.22338867,0
1127,-0.9160156,-0.26635742,0.24511719,0
1128,-0.9206543,-0.27734375,0.22729494,0
1129,-0.9011231,-0.3110352,0.25,0
1130,-0.91186523,-0.32543945,0.26831055,0
1131,-0.951416,-0.33032227,0.2709961,0
1132,-0.96264654,-0.3010254,0.2619629,0
1133,-0.95581055,-0.29638672,0.26220703,0
1134,-0.94213873,-0.2956543,0.25585938,0
1135,-0.944336,-0.30029297,0.2578125,0
1136,-0.9367676,-0.29760742,0.25317383,0
1137,-0.9084473,-0.29858398,0.26098633,0
1138,-0.9111328,-0.29003906,0.26000977,0
1139,-0.91552734,-0.29223633,0.23510742,0
1140,-0.9179688,-0.3015137,0.23876953,0
1141,-0.92993164,-0.3083496,0.24194337,0
1142,-0.94213873,-0.2915039,0.22460938,0
1143,-0.95581055,-0.28320312,0.22314453,0
1144,-0.95898443,-0.27539062,0.21704103,0
1145,-0.95336914,-0.27661133,0.22485352,0
1146,-0.9448242,-0.26782227,0.21801758,0
1147,-0.94384766,-0.26611328,0.21313477,0
1148,-0.9309082,-0.2578125,0.2109375,0
1149,-0.9313965,-0.2614746,0.21166992,0
1150,-0.935791,-0.25585938,0.21240234,0
1151,-0.9812012,-0.25097656,0.23510742,0
1152,-1.0336914,-0.24438477,0.24853517,0
1153,-1.0578613,-0.22998047,0.26635742,0
1154,-1.0334473,-0.23583984,0.32983398,0
1155,-1.005127,-0.21704103,0.3317871,0
1156,-0.8859863,-0.19067384,0.29907227,0
1157,-0.8947754,-0.18237305,0.2993164,0
1158,-0.90356445,-0.20507812,0.3503418,0
1159,-0.9226074,-0.17480469,0.30981445,0
1160,-0.91650397,-0.16772461,0.29711914,0
1161,-0.88574225,-0.18676758,0.29296875,0
1162,-0.78930664,-0.20996094,0.32177734,0
1163,-0.78930664,-0.20996094,0.32177734,0
1164,-0.7988281,-0.19458008,0.31542972,0
1165,-0.8334961,-0.1430664,0.2614746,0
1166,-0.8615723,-0.15771486,0.22558594,0
1167,-0.89526373,-0.21386719,0.23779297,0
1168,-0.944336,-0.29101562,0.26538086,0
1169,-0.8640137,-0.328125,0.26098633,0
1170,-0.78344727,-0.28930664,0.19091797,0
1171,-0.8093262,-0.29467773,0.1784668,0
1172,-0.88012695,-0.33959964,0.2241211,0
1173,-0.97265625,-0.40429688,0.25512695,0
1174,-0.94750977,-0.36279297,0.23168947,0
1175,-0.95214844,-0.3503418,0.24658203,0
1176,-0.9787598,-0.3652344,0.2536621,0
1177,-0.94921875,-0.3520508,0.24365234,0
1178,-0.93969727,-0.34277344,0.23657227,0
1179,-0.97753906,-0.3552246,0.24560548,0
1180,-0.9680176,-0.35742188,0.22851562,0
1181,-0.9445801,-0.35473633,0.21850587,0
1182,-0.92602545,-0.34277344,0.21191408,0
1183,-0.92944336,-0.3269043,0.20874023,0
1184,-0.9509278,-0.30566406,0.21240234,0
1185,-0.94091797,-0.29370117,0.20922852,0
1186,-0.9321289,-0.2734375,0.20996094,0
1187,-0.9343262,-0.2631836,0.21948242,0
1188,-0.9350586,-0.2626953,0.21850587,0
1189,-0.9350586,-0.27001953,0.22070314,0
1190,-0.93334967,-0.27783203,0.22387695,0
1191,-0.9328613,-0.2668457,0.22192383,0
1192,-0.9416504,-0.25952148,0.21728516,0
1193,-0.9460449,-0.25170898,0.22045898,0
1194,-0.93603516,-0.25439453,0.21899414,0
1195,-0.93603516,-0.25830078,0.21118166,0
1196,-0.93603516,-0.25830078,0.21118166,0
1197,-0.93603516,-0.25830078,0.21118166,0
1198,-0.92895514,-0.2626953,0.2126465,0
1199,-0.9338379,-0.27148438,0.21630861,0
1200,-0.93554693,-0.26953125,0.21655273,0
1201,-0.93554693,-0.26953125,0.21655273,0
1202,-0.92578125,-0.2861328,0.21533203,0
1203,-0.9384766,-0.28979492,0.21826172,0
1204,-0.94189453,-0.28466797,0.21826172,0
1205,-0.93725586,-0.28051758,0.21679688,0
1206,-0.9367676,-0.28881836,0.21606445,0
1207,-0.92968756,-0.28930664,0.2126465,0
1208,-0.90893555,-0.29370117,0.19091797,0
1209,-0.89501953,-0.30541992,0.18286133,0
1210,-0.90283203,-0.31201172,0.16015625,0
1211,-1.0041504,-0.3146973,0.1772461,0
1212,-0.982666,-0.25976562,0.17675783,0
1213,-0.9816895,-0.24340822,0.22485352,0
1214,-0.9453125,-0.26367188,0.23242189,0
1215,-0.92407227,-0.2614746,0.2277832,0
1216,-0.90966797,-0.23657227,0.22875978,0
1217,-0.8977051,-0.23730469,0.22631836,0
1218,-0.907959,-0.25561523,0.21972656,0
1219,-0.9147949,-0.2644043,0.2126465,0
1220,-0.9340821,-0.26464844,0.20166017,0
1221,-0.9411621,-0.26123047,0.1977539,0
1222,-0.9423828,-0.26245117,0.19189453,0
1223,-0.9414063,-0.26220703,0.18994142,0
1224,-0.93896484,-0.26367188,0.19262695,0
1225,-0.93359375,-0.2709961,0.18798828,0
1226,-0.9313965,-0.2861328,0.19604492,0
1227,-0.93359375,-0.2854004,0.19653322,0
1228,-0.9470215,-0.28125,0.19873048,0
1229,-0.9487305,-0.2878418,0.20312501,0
1230,-0.9511719,-0.2800293,0.20043945,0
1231,-0.958252,-0.2849121,0.19921875,0
1232,-0.9472657,-0.2783203,0.2023926,0
1233,-0.944336,-0.2692871,0.19824219,0
1234,-0.93896484,-0.26635742,0.19921875,0
1235,-0.93994147,-0.26513672,0.20019533,0
1236,-0.93896484,-0.26635742,0.20214844,0
1237,-0.93554693,-0.25756836,0.20019533,0
1238,-0.93554693,-0.25756836,0.20019533,0
1239,-0.9440918,-0.26171875,0.20629883,0
1240,-0.94311523,-0.26171875,0.20776367,0
1241,-0.93994147,-0.25854492,0.20361328,0
1242,-0.94189453,-0.26171875,0.20361328,0
1243,-0.9445801,-0.26367188,0.2055664,0
1244,-0.9433594,-0.26220703,0.20581055,0
1245,-0.94091797,-0.26879883,0.20043945,0
1246,-0.9404297,-0.27319336,0.19897461,0
1247,-0.9450684,-0.2685547,0.19995117,0
1248,-0.9416504,-0.26733398,0.19628906,0
1249,-0.9375,-0.26904297,0.19433595,0
1250,-0.93725586,-0.26586914,0.1940918,0
1251,-0.9394531,-0.27319336,0.19604492,0
1252,-0.9367676,-0.27026367,0.20361328,0
1253,-0.93725586,-0.2685547,0.20141602,0
1254,-0.93725586,-0.26904297,0.20507812,0
1255,-0.9406739,-0.26733398,0.19750977,0
1256,-0.94018555,-0.27929688,0.20263672,0
1257,-0.9423828,-0.27124023,0.20141602,0
1258,-0.9406739,-0.26660156,0.20336914,0
1259,-0.9375,-0.2607422,0.20458986,0
1260,-0.9379883,-0.26513672,0.20117188,0
1261,-0.94628906,-0.2668457,0.1958008,0
1262,-0.94628906,-0.2668457,0.1958008,0
1263,-0.9460449,-0.26098633,0.20141602,0
1264,-0.9460449,-0.26098633,0.20141602,0
1265,-0.9450684,-0.2565918,0.20117188,0
1266,-0.9450684,-0.2565918,0.20117188,0
1267,-0.94677734,-0.25854492,0.19921875,0
1268,-0.94677734,-0.25854492,0.19921875,0
1269,-0.9406739,-0.25683594,0.19921875,0
1270,-0.9414063,-0.25634766,0.19824219,0
1271,-0.9377442,-0.25512695,0.19824219,0
1272,-0.93969727,-0.26171875,0.19726564,0
1273,-0.93920904,-0.26391602,0.19653322,0
1274,-0.93920904,-0.26391602,0.19653322,0
1275,-0.9416504,-0.2626953,0.19897461,0
1276,-0.935791,-0.2644043,0.20288086,0
1277,-0.935791,-0.26831055,0.19702148,0
1278,-0.9340821,-0.071777344,0.30737308,0
1279,-0.9272461,-0.14526367,0.28735352,0
1280,-0.94311523,-0.31396487,0.24243164,0
1281,-0.9057617,-0.3850098,0.1977539,0
1282,-0.925293,-0.25878906,0.24121095,0
1283,-0.94555664,-0.21044923,0.23950195,0
1284,-0.951416,-0.2241211,0.23583984,0
1285,-0.96606445,-0.28125,0.21166992,0
1286,-0.96362305,-0.2956543,0.21142578,0
1287,-0.94750977,-0.28857422,0.21313477,0
1288,-0.9345703,-0.25610352,0.21606445,0
1289,-0.93725586,-0.27392578,0.21240234,0
1290,-0.9375,-0.26660156,0.20922852,0
1291,-0.95043945,-0.24365234,0.21899414,0
1292,-0.9545899,-0.25708008,0.2258301,0
1293,-0.94213873,-0.24316406,0.2229004,0
1294,-0.92602545,-0.24511719,0.23071289,0
1295,-0.92602545,-0.24511719,0.23071289,0
1296,-0.9509278,-0.26733398,0.3015137,0
1297,-0.95996094,-0.24584961,0.28930664,0
1298,-0.93554693,-0.2241211,0.27685547,0
1299,-0.91967773,-0.22436525,0.27368164,0
1300,-0.9133301,-0.23364258,0.23510742,0
1301,-0.9208985,-0.2229004,0.21166992,0
1302,-0.93554693,-0.23632812,0.19116211,0
1303,-0.9313965,-0.25317383,0.16430666,0
1304,-0.9348145,-0.2836914,0.12475586,0
1305,-0.90625006,-0.1850586,0.13183594,0
1306,-0.9106446,-0.13720703,0.18823242,0
1307,-0.9501954,-0.43237305,0.08154297,0
1308,-0.9375,-0.43627933,0.068847656,0
1309,-0.93896484,-0.39794922,0.08276367,0
1310,-1.0683594,-0.58447266,0.2043457,0
1311,-1.0175781,-0.21069336,0.000244,0
1312,-0.8562012,0.57836914,0.52905273,0
1313,-0.95410156,-0.119873054,0.831543,0
1314,-0.8605957,-0.103271484,0.59033203,0
1315,-0.8095704,-0.38085938,0.31567383,0
1316,-0.71118164,-0.12866211,0.13964844,0
1317,-0.85253906,-0.0769043,0.1340332,0
1318,-0.85253906,-0.0769043,0.1340332,0
1319,-1.0114746,-0.19384766,0.30419922,0
1320,-1.0209961,-0.31201172,0.29174805,0
1321,-0.9885254,-0.3269043,0.28198242,0
1322,-0.9584961,-0.31396487,0.29418945,0
1323,-0.93310547,-0.28076172,0.296875,0
1324,-0.93261725,-0.25024414,0.25683594,0
1325,-0.923584,-0.25927734,0.2548828,0
1326,-0.91943365,-0.26293945,0.25512695,0
1327,-0.9206543,-0.25561523,0.24658203,0
1328,-0.925293,-0.25463867,0.2487793,0
1329,-0.9313965,-0.24804688,0.24243164,0
1330,-0.9375,-0.2463379,0.24316406,0
1331,-0.9436036,-0.2426758,0.24609375,0
1332,-0.9382324,-0.23071289,0.2463379,0
1333,-0.9338379,-0.23168947,0.25,0
1334,-0.9370118,-0.236084,0.2548828,0
1335,-0.93627936,-0.23706055,0.25317383,0
1336,-0.92333984,-0.24023438,0.25317383,0
1337,-0.92944336,-0.2446289,0.2512207,0
1338,-0.923584,-0.25561523,0.2512207,0
1339,-0.9291992,-0.25976562,0.2487793,0
1340,-0.94287115,-0.25732422,0.24780275,0
1341,-0.9536133,-0.2548828,0.24169922,0
1342,-0.9616699,-0.24682617,0.23071289,0
1343,-0.95336914,-0.24560548,0.22241211,0
1344,-0.93237305,-0.24365234,0.21533203,0
1345,-0.93310547,-0.24560548,0.19506837,0
1346,-0.925293,-0.24536133,0.18164062,0
1347,-0.9321289,-0.24804688,0.17944336,0
1348,-0.9575196,-0.26464844,0.2019043,0
1349,-0.9609375,-0.2529297,0.2023926,0
1350,-0.97314453,-0.25732422,0.22998047,0
1351,-0.97314453,-0.25732422,0.22998047,0
1352,-0.9680176,-0.23754884,0.25146484,0
1353,-0.9855957,-0.22387695,0.25756836,0
1354,-0.99633795,-0.1958008,0.25585938,0
1355,-0.93359375,-0.18945312,0.2258301,0
1356,-0.94311523,-0.19873048,0.24047853,0
1357,-0.9572754,-0.20385744,0.23803711,0
1358,-0.9516602,-0.15039064,0.22485352,0
1359,-0.92626953,-0.17114258,0.24072266,0
1360,-0.92626953,-0.17114258,0.24072266,0
1361,-0.91943365,-0.22094727,0.24975586,0
1362,-0.88867193,-0.15771486,0.19360353,0
1363,-0.96264654,-0.32739258,0.32177734,0
1364,-0.95971686,-0.34985355,0.31201172,0
1365,-0.9086914,-0.331543,0.28051758,0
1366,-0.9086914,-0.331543,0.28051758,0
1367,-0.9145508,-0.25756836,0.2709961,0
1368,-0.90234375,-0.27612305,0.2685547,0
1369,-0.88378906,-0.29077148,0.28149414,0
1370,-0.8552246,-0.26879883,0.27075195,0
1371,-0.8781738,-0.3015137,0.30029297,0
1372,-0.8869629,-0.31713867,0.3173828,0
1373,-0.85205084,-0.35473633,0.38647464,0
1374,-0.8078613,-0.36206055,0.4050293,0
1375,-0.82543945,-0.37304688,0.42211914,0
1376,-0.9384766,-0.36743167,0.47631836,0
1377,-0.9350586,-0.3381348,0.45605472,0
1378,-0.8847656,-0.28857422,0.41479492,0
1379,-0.89208984,-0.3278809,0.37890625,0
1380,-0.92041016,-0.32080078,0.37109378,0
1381,-0.9787598,-0.28881836,0.35229492,0
1382,-1.020752,-0.27661133,0.33862305,0
1383,-1.0170898,-0.27416992,0.2890625,0
1384,-1.0280762,-0.2614746,0.2253418,0
1385,-1.0783691,-0.16259766,0.059326172,0
1386,-1.076416,-0.14550781,0.032226562,0
1387,-1.0632324,-0.080078125,-0.0234375,0
1388,-1.013916,-0.060058594,-0.03051758,0
1389,-0.9003907,-0.06982422,-0.055419922,0
1390,-0.8679199,-0.09838867,-0.052001953,0
1391,-0.8732911,-0.17407227,-0.047119144,0
1392,-0.96875,-0.19042969,-0.063964844,0
1393,-0.9946289,-0.19482422,-0.06567383,0
1394,-1.0400391,-0.20800781,-0.084228516,0
1395,-1.0178223,-0.19091797,-0.092773445,0
1396,-0.96923834,-0.13647461,-0.077392586,0
1397,-1.0129395,-0.1887207,-0.038085938,0
1398,-1.0361328,-0.22875978,-0.009765626,0
1399,-1.0639648,-0.23706055,0.026123049,0
1400,-1.1081543,-0.23583984,0.049804688,0
1401,-1.0756836,-0.2409668,0.053222656,0
1402,-1.0310059,-0.23657227,0.07592774,0
1403,-1.0549316,-0.24194337,0.10375977,0
1404,-1.0617676,-0.23925781,0.10131836,0
1405,-1.1223145,-0.19897461,0.061523438,0
1406,-1.1291504,-0.16845703,0.07080078,0
1407,-0.9809571,-0.16796876,0.115234375,0
1408,-0.861084,-0.100830086,0.16381836,0
1409,-0.861084,-0.100830086,0.16381836,0
1410,-0.9816895,-0.12036133,0.19433595,0
1411,-1.0310059,-0.083740234,0.1994629,0
1412,-0.96264654,-0.07861328,0.21240234,0
1413,-0.94653326,-0.0871582,0.23168947,0
1414,-0.96362305,-0.14624023,0.3137207,0
1415,-0.96362305,-0.14624023,0.3137207,0
1416,-0.9516602,-0.125,0.3083496,0
1417,-0.9411621,-0.12451172,0.30249023,0
1418,-0.9201661,-0.11669922,0.3044434,0
1419,-0.9013672,-0.1105957,0.31445312,0
1420,-0.8579102,-0.112548836,0.31884766,0
1421,-0.8579102,-0.112548836,0.31884766,0
1422,-0.8579102,-0.112548836,0.31884766,0
1423,-0.85302734,-0.13012695,0.29882812,0
1424,-0.85302734,-0.13012695,0.29882812,0
1425,-0.8872071,-0.19311523,0.24560548,0
1426,-0.9645996,-0.1875,0.2426758,0
1427,-0.9760742,-0.2229004,0.2668457,0
1428,-0.9760742,-0.2229004,0.2668457,0
1429,-0.8913574,-0.18286133,0.2902832,0
1430,-0.8913574,-0.18286133,0.2902832,0
1431,-0.9472657,-0.236084,0.16259766,0
1432,-1.0100098,-0.099121094,0.2019043,0
1433,-0.89624023,-0.18627931,0.12695312,0
1434,-0.94262695,-0.15820312,0.125,0
1435,-1.0441895,-0.48168948,0.019531252,0
1436,-0.99072266,-0.072265625,0.07666016,0
1437,-0.99438477,0.016845703,0.17919922,0
1438,-0.99438477,0.016845703,0.17919922,0
1439,-1.1027832,-0.096191406,0.16479492,0
1440,-1.0668945,-0.13085938,0.11450195,0
1441,-1.0031738,-0.15966797,0.055908207,0
1442,-1.0373535,-0.24365234,0.048339844,0
1443,-1.0517578,-0.2590332,0.03491211,0
1444,-1.0209961,-0.27490234,0.018066406,0
1445,-0.93310547,-0.23730469,0.06347656,0
1446,-0.91552734,-0.21606445,0.11352539,0
1447,-1.0083008,-0.2290039,0.1525879,0
1448,-0.97753906,-0.21704103,0.14453125,0
1449,-0.9550781,-0.21704103,0.1586914,0
1450,-0.9394531,-0.23413086,0.19873048,0
1451,-0.9284668,-0.21289062,0.19873048,0
1452,-0.9182129,-0.17797852,0.18017578,0
1453,-0.9846192,-0.16845703,0.18237305,0
1454,-0.9743653,-0.1723633,0.21679688,0
1455,-0.9509278,-0.19042969,0.20483398,0
1456,-0.98974615,-0.18139648,0.19995117,0
1457,-1.0036621,-0.1809082,0.20751955,0
1458,-1.0126953,-0.18139648,0.22363283,0
1459,-0.9880371,-0.17773438,0.22143556,0
1460,-0.95678717,-0.15673828,0.20507812,0
1461,-0.9477539,-0.18237305,0.2060547,0
1462,-0.9440918,-0.1760254,0.20214844,0
1463,-0.94189453,-0.1821289,0.1977539,0
1464,-0.93969727,-0.1821289,0.20458986,0
1465,-0.94262695,-0.1525879,0.18066406,0
1466,-0.95410156,-0.15771486,0.17382814,0
1467,-0.9875489,-0.17456056,0.16552734,0
1468,-0.98242193,-0.19165039,0.19165039,0
1469,-0.9133301,-0.17968751,0.20019533,0
1470,-0.8781738,-0.10961915,0.15893555,0
1471,-0.89599615,-0.06713867,0.15893555,0
1472,-0.92578125,-0.0769043,0.19335938,0
1473,-0.8403321,-0.040771484,0.25390625,0
1474,-0.8552246,0.053222656,0.21484376,0
1475,-1.0183105,-0.12597656,0.23413086,0
1476,-0.9628906,-0.13769531,0.14501953,0
1477,-0.92871094,-0.119873054,0.16015625,0
1478,-0.8364258,-0.095947266,0.099853516,0
1479,-0.85961914,0.14526367,0.5864258,0
1480,-0.8898926,0.0546875,0.55200195,0
1481,-0.92407227,-0.17773438,0.41918945,0
1482,-1.1923828,-0.029052736,0.7512207,0
1483,-1.1645508,-0.17138672,0.54541016,0
1484,-0.9472657,0.024169922,0.3486328,0
1485,-0.8371582,0.047851566,0.06762695,0
1486,-0.7268067,-0.05053711,0.17553711,0
1487,-0.73291016,-0.07421875,0.29248047,0
1488,-0.67187506,0.041503906,0.32763672,0
1489,-0.80688477,-0.11279297,0.3051758,0
1490,-0.9003907,-0.046142578,0.47998047,0
1491,-0.7199707,-0.07812501,0.36206055,0
1492,-0.7199707,-0.07812501,0.36206055,0
1493,-0.52001953,-0.059814453,0.84179693,0
1494,-0.83569336,0.03881836,1.1743164,0
1495,-0.7871094,-0.5031738,1.0559082,0
1496,-0.32617188,-0.23217773,0.77148443,0
1497,-0.10571289,0.25073242,0.7492676,0
1498,0.05737305,0.6169434,2.113037,0
1499,0.112548836,-0.2512207,0.7807617,0
1500,0.34643555,0.52368164,0.21655273,0
1501,-0.11767579,0.007080079,0.031982422,0
1502,-0.25512695,-0.19335938,0.24658203,0
1503,-0.19604492,0.21435547,1.2785646,0
1504,0.5625,-0.060791016,1.8872072,0
1505,0.4619141,-0.26708984,0.6591797,0
1506,0.19042969,-0.2492676,0.7634278,0
1507,-0.028564453,0.14697266,1.1335449,0
1508,-0.000732,0.12915039,1.045166,0
1509,0.03100586,0.07763672,0.96655273,0
1510,-0.13256836,0.11401368,0.9719238,0
1511,-0.19873048,0.1315918,0.9946289,0
1512,-0.1953125,0.11279297,1.0058594,0
1513,-0.14624023,0.03051758,0.9916992,0
1514,-0.107177734,0.006591797,0.98681647,0
1515,-0.015625,-0.032714844,0.9816895,0
1516,-0.096191406,-0.06176758,0.9970704,0
1517,-0.10595704,-0.01879883,0.99658203,0
1518,-0.09814453,-0.018554688,0.97314453,0
1519,-0.10058594,-0.046142578,0.9785156,0
1520,-0.11645508,-0.07763672,0.9914551,0
1521,-0.108154304,-0.08325196,0.9638672,0
1522,-0.08862305,-0.096435554,0.95996094,0
1523,-0.10058594,-0.05297852,1.001709,0
1524,-0.10644531,-0.033935547,1.0,0
1525,-0.103515625,-0.064697266,0.9685059,0
1526,-0.107177734,-0.07666016,0.977295,0
1527,-0.10009766,-0.034179688,0.9941407,0
1528,-0.09082031,-0.02368164,0.98974615,0
1529,-0.09082031,-0.02368164,0.98974615,0
1530,-0.10229493,-0.0637207,0.98291016,0
1531,-0.09887695,-0.07836914,0.97680664,0
1532,-0.095214844,-0.06518555,0.98339844,0
1533,-0.0979004,-0.063964844,0.9777832,0
1534,-0.10058594,-0.068847656,0.9741211,0
1535,-0.10156251,-0.07373047,0.9851074,0
1536,-0.10522462,-0.025146484,1.0012207,0
1537,-0.1105957,-0.046142578,0.9873047,0
1538,-0.10498047,-0.0690918,0.9848633,0
1539,-0.10302735,-0.051513676,0.982666,0
1540,-0.10009766,-0.060791016,0.982666,0
1541,-0.103271484,-0.047119144,0.9853516,0
1542,-0.104492195,-0.040771484,0.99072266,0
1543,-0.109375,-0.046386722,0.9853516,0
1544,-0.10668946,-0.056884766,0.97998047,0
1545,-0.10620117,-0.05493164,0.9838868,0
1546,-0.104492195,-0.0456543,0.98608404,0
1547,-0.104003906,-0.05029297,0.984375,0
1548,-0.107177734,-0.05419922,0.9853516,0
1549,-0.10668946,-0.050781254,0.98950195,0
1550,-0.10839844,-0.044189457,0.98779297,0
1551,-0.10498047,-0.049560547,0.98217773,0
1552,-0.10424805,-0.05737305,0.9819336,0
1553,-0.106933594,-0.055419922,0.98657227,0
1554,-0.10546875,-0.05834961,0.97949225,0
1555,-0.10522462,-0.055175785,0.98413086,0
1556,-0.108886726,-0.05419922,0.98901373,0
1557,-0.11376953,-0.05737305,0.9938965,0
1558,-0.09814453,-0.041748047,0.9892578,0
1559,-0.0793457,-0.06665039,0.9658203,0
1560,-0.081054695,0.003662109,1.0144043,0
1561,-0.053466797,-0.022949219,1.0581055,0
1562,-0.004394531,0.03564453,1.1640625,0
1563,-0.0715332,0.04321289,1.1928711,0
1564,0.009521484,-0.005371094,1.1533203,0
1565,0.03540039,-0.103515625,1.0620117,0
1566,0.012207031,0.051513676,0.9941407,0
1567,-0.07055664,-0.025878906,0.98681647,0
1568,-0.097167976,-0.041748047,0.9780274,0
1569,-0.097167976,-0.041748047,0.9780274,0
1570,-0.08862305,-0.010986328,0.88867193,0
1571,-0.08862305,-0.010986328,0.88867193,0
1572,-0.11914063,0.004150391,0.79272467,0
1573,-0.11914063,0.004150391,0.79272467,0
1574,-0.13500977,-0.016845703,0.82299805,0
1575,-0.13500977,-0.016845703,0.82299805,0
1576,-0.16601562,-0.029296875,0.76953125,0
1577,-0.16601562,-0.029296875,0.76953125,0
1578,-0.1953125,-0.046875,0.720459,0
1579,-0.5258789,-0.013427735,1.0532227,0
1580,-0.5554199,-0.07299805,0.75561523,0
1581,-0.5854492,-0.1574707,0.7141113,0
1582,-0.5854492,-0.1574707,0.7141113,0
1583,-0.39501953,-0.12915039,0.8334961,0
1584,-0.70117193,-0.41748047,0.6469727,0
1585,-0.75219727,-0.24902344,0.8779297,0
1586,-0.8691406,-0.10595704,0.35986328,0
1587,-0.90234375,-0.046875,0.26904297,0
1588,-0.9951172,0.14941406,0.2023926,0
1589,-1.0073242,0.16259766,0.10961915,0
1590,-1.0080566,0.11669922,0.037841797,0
1591,-1.0229492,0.12963867,-0.063964844,0
1592,-1.0039062,0.024658205,-0.1430664,0
1593,-1.0229492,0.001708984,-0.15576172,0
1594,-1.0056152,0.05664063,-0.17089845,0
1595,-0.9968262,-0.008056641,-0.16259766,0
1596,-0.97021484,0.09765625,-0.15966797,0
1597,-0.91210943,0.009033203,-0.23876953,0
1598,-1.0378418,0.083740234,-0.2175293,0
1599,-1.0822754,0.22509767,0.1394043,0
1600,-0.85668945,0.24438477,-0.055419922,0
1601,-0.8967286,0.17333984,-0.12841797,0
1602,-0.9499512,0.15429688,-0.15698244,0
1603,-1.090332,0.07763672,-0.11010742,0
1604,-1.2414551,-0.15234375,-0.14624023,0
1605,-1.5383301,0.028808594,-0.0769043,0
1606,-1.5590822,0.06933594,-0.11669922,0
1607,-1.0349121,0.043701172,-0.35473633,0
1608,-0.86303717,0.24438477,-0.4318848,0
1609,-0.8547363,0.016845703,0.3249512,0
1610,-0.6291504,0.1303711,0.43579102,0
1611,-0.5998535,0.22021484,0.53344727,0
1612,-0.6020508,0.14404297,0.34399417,0
1613,-1.204834,-0.07104492,-0.22875978,0
1614,-1.3159181,-0.21899414,-0.27856445,0
1615,-1.1931152,-0.12988281,-0.28710938,0
1616,-1.1813965,-0.08642578,-0.1826172,0
1617,-1.0908203,-0.07836914,-0.0715332,0
1618,-1.0708008,-0.21826172,0.003173828,0
1619,-1.1247559,-0.24804688,0.07519532,0
1620,-0.97998047,-0.23950195,0.096191406,0
1621,-0.95581055,-0.28173828,0.1027832,0
1622,-0.998291,-0.30004886,0.14697266,0
1623,-1.027832,-0.25976562,0.1508789,0
1624,-1.0830078,-0.2241211,0.13452148,0
1625,-0.9787598,-0.1484375,0.10180664,0
1626,-0.8439942,-0.1994629,0.16137697,0
1627,-0.8486328,-0.2192383,0.18383789,0
1628,-0.82568365,-0.20800781,0.13647461,0
1629,-0.8381348,-0.24951172,0.080566406,0
1630,-0.8405762,-0.28271484,0.0913086,0
1631,-0.7539063,-0.3215332,0.14648438,0
1632,-0.8239746,-0.30371097,0.09936524,0
1633,-1.0541992,-0.3869629,0.047607422,0
1634,-1.0974121,-0.47290042,0.108886726,0
1635,-1.1660156,-0.5031738,0.25146484,0
1636,-1.1740723,-0.26000977,0.33569336,0
1637,-0.9506836,-0.32348636,0.2854004,0
1638,-0.85595703,-0.9406739,0.06982422,0
1639,-0.80151373,-1.097168,0.107666016,0
1640,-0.5600586,-0.8054199,0.17773438,0
1641,-0.48999023,-0.94311523,-0.000732,0
1642,-0.43017578,-0.84814453,-0.079833984,0
1643,-0.68798834,-0.4255371,0.07763672,0
1644,-0.74243164,-0.9440918,0.04931641,0
1645,-0.74243164,-0.9440918,0.04931641,0
1646,-0.47656253,0.48315433,0.32958984,0
1647,-0.79956055,-0.46948242,0.2763672,0
1648,-0.83520514,-1.6496582,-0.32885742,0
1649,-0.83520514,-1.6496582,-0.32885742,0
1650,-0.9477539,-0.18798828,0.1550293,0
1651,-1.0292969,-0.5007324,0.2705078,0
1652,-0.88256836,-0.486084,0.08642578,0
1653,-0.7426758,-0.45019534,-0.052734375,0
1654,-0.7404785,-0.4619141,-0.03125,0
1655,-1.0344238,-0.42968753,-0.08129883,0
1656,-1.1335449,-0.49243164,-0.059326172,0
1657,-1.0456543,-0.4584961,-0.119628906,0
1658,-1.0241699,-0.45581055,-0.22656251,0
1659,-0.95971686,-0.38647464,0.15893555,0
1660,-0.8095704,-0.3671875,0.07788086,0
1661,-0.8083496,-0.30957034,0.009521484,0
1662,-0.9001465,-0.41308594,0.04931641,0
1663,-0.86987305,-0.59375,0.001220703,0
1664,-0.88305664,-0.54589844,-0.015136719,0
1665,-0.9133301,-0.5073242,-0.006835938,0
1666,-0.91381836,-0.48266602,0.022705078,0
1667,-0.91845703,-0.46826172,0.056152344,0
1668,-0.8869629,-0.64917,-0.005126953,0
1669,-0.850586,-0.6098633,-0.053466797,0
1670,-0.8276367,-0.5239258,-0.05126953,0
1671,-0.88256836,-0.5612793,-0.02709961,0
1672,-0.91308594,-0.6533203,-0.072265625,0
1673,-0.86962897,-0.5476074,-0.079833984,0
1674,-0.8588867,-0.5842285,-0.045410156,0
1675,-0.8637696,-0.42260742,0.000488,0
1676,-0.85302734,-0.42456058,-0.038085938,0
1677,-0.85180664,-0.4189453,-0.047607422,0
1678,-0.8327637,-0.34350586,0.11303711,0
1679,-0.8901368,-0.35229492,0.1875,0
1680,-0.9968262,-0.32617188,0.11425781,0
1681,-1.0187988,-0.37426758,0.02709961,0
1682,-0.9995117,-0.3149414,0.072265625,0
1683,-1.0356445,-0.39794922,0.12475586,0
1684,-1.0397949,-0.46948242,0.17822267,0
1685,-1.0302734,-0.4692383,0.15625001,0
1686,-0.9020996,-0.42675784,0.0793457,0
1687,-0.7980957,-0.34912112,-0.005371094,0
1688,-0.7453613,-0.38330078,-0.006835938,0
1689,-0.70190436,-0.38549805,0.068115234,0
1690,-0.70776373,-0.39331055,0.15795898,0
1691,-0.7570801,-0.38427737,0.22631836,0
1692,-0.7741699,-0.3479004,0.21166992,0
1693,-0.8305664,-0.3647461,0.16748047,0
1694,-0.91918945,-0.36938477,0.15356445,0
1695,-0.94311523,-0.47802737,0.22680664,0
1696,-0.9172364,-0.4892578,0.29418945,0
1697,-0.89892584,-0.67456055,0.2668457,0
1698,-0.87182623,-0.61938477,0.20922852,0
1699,-0.87182623,-0.61938477,0.20922852,0
1700,-0.85668945,-0.44360355,0.21655273,0
1701,-0.8535157,-0.378418,0.2578125,0
1702,-0.90722656,-0.36401367,0.20727539,0
1703,-0.921875,-0.31884766,-0.0637207,0
1704,-0.96435547,-0.26635742,-0.107177734,0
1705,-0.96435547,-0.26635742,-0.107177734,0
1706,-0.9169922,-0.3840332,-0.056396484,0
1707,-0.91845703,-0.40649414,-0.041748047,0
1708,-0.91845703,-0.40649414,-0.041748047,0
1709,-0.921875,-0.4086914,-0.03930664,0
1710,-0.94018555,-0.50219727,-0.035888672,0
1711,-0.89306647,-0.49072266,-0.030273438,0
1712,-0.87890625,-0.47973633,-0.024169922,0
1713,-0.87524414,-0.47949222,-0.009765626,0
1714,-0.88574225,-0.5083008,0.024902344,0
1715,-0.85302734,-0.45263672,0.16381836,0
1716,-0.8503418,-0.5180664,0.03930664,0
1717,-0.842041,-0.5136719,-0.001220703,0
1718,-0.842041,-0.5136719,-0.001220703,0
1719,-0.673584,-0.37939453,-0.028320314,0
1720,-0.9638672,-0.6064453,0.104003906,0
1721,-0.9638672,-0.6064453,0.104003906,0
1722,-1.0124512,-0.80249023,-0.001220703,0
1723,-1.0124512,-0.80249023,-0.001220703,0
1724,-0.91870123,-0.6623536,-0.031982422,0
1725,-0.91870123,-0.6623536,-0.031982422,0
1726,-0.8544922,-0.56762695,0.07348633,0
1727,-0.8544922,-0.56762695,0.07348633,0
1728,-0.77148443,-0.5690918,-0.005859375,0
1729,-0.77148443,-0.5690918,-0.005859375,0
1730,-0.92871094,-0.61450195,-0.1237793,0
1731,-0.9199219,-0.38574222,0.15283203,0
1732,-0.80566406,-0.2553711,0.28686523,0
1733,-0.80566406,-0.2553711,0.28686523,0
1734,-0.9487305,-0.123046875,0.20361328,0
1735,-0.9487305,-0.123046875,0.20361328,0
1736,-1.0048828,-0.15625001,0.12109375,0
1737,-1.0048828,-0.15625001,0.12109375,0
1738,-1.013916,-0.18408205,0.08886719,0
1739,-0.86206055,-0.27734375,0.092285156,0
1740,-0.8063965,-0.38305664,0.18334962,0
1741,-0.8691406,-0.37670898,0.24975586,0
1742,-0.8691406,-0.37670898,0.24975586,0
1743,-0.95312506,-0.46948242,0.21630861,0
1744,-0.876709,-0.54663086,0.16650392,0
1745,-0.911377,-0.6191407,0.15771486,0
1746,-0.97949225,-0.5124512,0.12475586,0
1747,-0.93652344,-0.53515625,0.018310547,0
1748,-0.861084,-0.33764648,0.0456543,0
1749,-0.8937989,-0.21166992,-0.015136719,0
1750,-0.97680664,-0.21459961,-0.12548828,0
1751,-1.0351562,-0.26171875,-0.18164062,0
1752,-1.0668945,-0.21875,-0.19995117,0
1753,-1.0996094,-0.24047853,-0.22436525,0
1754,-0.97631836,-0.35302734,-0.19628906,0
1755,-0.9321289,-0.39379886,-0.1472168,0
1756,-0.8918457,-0.34252933,-0.106933594,0
1757,-0.9919434,-0.4987793,-0.11425781,0
1758,-0.9848633,-0.5476074,-0.189209,0
1759,-0.89624023,-0.44970703,-0.19116211,0
1760,-0.796875,-0.39257812,-0.16625977,0
1761,-0.7634278,-0.43286133,-0.15332033,0
1762,-0.8403321,-0.53027344,-0.189209,0
1763,-0.8833008,-0.5305176,-0.15185548,0
1764,-0.9211426,-0.5698242,-0.15063477,0
1765,-0.9470215,-0.49975586,-0.11669922,0
1766,-0.9135743,-0.33544922,-0.063964844,0
1767,-0.9135743,-0.33544922,-0.063964844,0
1768,-1.0410156,-0.2998047,0.053955078,0
1769,-0.9614258,-0.4885254,0.27270508,0
1770,-0.90649414,-0.4345703,0.3005371,0
1771,-0.83203125,-0.34228516,0.32348636,0
1772,-0.7934571,-0.40063477,0.23510742,0
1773,-0.87890625,-0.37597656,0.1381836,0
1774,-0.80590826,-0.29711914,0.12988281,0
1775,-0.7941895,-0.25610352,0.21386719,0
1776,-1.0151367,-0.30322266,0.28393555,0
1777,-0.99975586,-0.22021484,0.24707033,0
1778,-1.0021973,-0.16674805,0.21240234,0
1779,-0.98901373,-0.20874023,0.21582031,0
1780,-0.9370118,-0.39282227,0.26782227,0
1781,-0.9172364,-0.14208984,0.3010254,0
1782,-0.96240234,-0.08666992,0.25195312,0
1783,-1.0249023,-0.19555664,0.22338867,0
1784,-0.9575196,-0.3046875,0.33862305,0
1785,-0.9328613,-0.2355957,0.23901369,0
1786,-0.89501953,-0.38476562,0.32226562,0
1787,-0.7980957,-0.4223633,0.4453125,0
1788,-0.73168945,-0.4807129,0.4692383,0
1789,-0.72875977,-0.5097656,0.46240234,0
1790,-0.7363282,-0.46972656,0.45117188,0
1791,-0.82592773,-0.375,0.27539062,0
1792,-0.9575196,-0.35009766,0.044433594,0
1793,-0.9018555,-0.3100586,-0.059570316,0
1794,-0.8439942,-0.17626953,0.001953125,0
1795,-0.90991217,-0.3010254,0.16796876,0
1796,-1.0302734,-0.27319336,0.24438477,0
1797,-0.9750977,-0.14868164,0.23144531,0
1798,-1.0058594,-0.06762695,0.23022462,0
1799,-1.0258789,-0.11352539,0.27148438,0
1800,-0.9562988,-0.012451172,0.29760742,0
1801,-0.9445801,-0.05102539,0.28466797,0
1802,-0.9958496,-0.06567383,0.26000977,0
1803,-1.032959,-0.009765626,0.2944336,0
1804,-1.0334473,-0.000244,0.26000977,0
1805,-0.9782715,-0.03515625,0.19311523,0
1806,-0.8601075,0.019531252,0.1430664,0
1807,-0.8588867,0.09570313,0.21899414,0
1808,-0.9592285,0.05102539,0.19824219,0
1809,-0.93896484,0.042236328,0.12158203,0
1810,-0.81933594,0.004150391,0.23706055,0
1811,-0.9172364,0.12817383,0.120605476,0
1812,-0.9284668,0.19311523,-0.048339844,0
1813,-0.91674805,0.27929688,-0.008544922,0
1814,-0.85302734,0.22705078,-0.03173828,0
1815,-1.0441895,0.24707033,0.017089844,0
1816,-1.0654297,0.2565918,-0.07910156,0
1817,-1.0256348,0.19653322,-0.23486328,0
1818,-1.0256348,0.19653322,-0.23486328,0
1819,-1.1582031,0.17138672,0.17041016,0
1820,-1.0554199,0.22143556,-0.07812501,0
1821,-1.0087891,0.07055664,-0.11303711,0
1822,-1.0939941,0.1213379,0.1430664,0
1823,-1.0517578,0.12109375,0.15844728,0
1824,-0.9345703,0.14331055,0.1875,0
1825,-0.93334967,0.12670898,0.22558594,0
1826,-1.0124512,0.036132812,0.23120117,0
1827,-1.0563965,-0.13623047,0.23730469,0
1828,-1.0046387,0.005859375,0.25952148,0
1829,-0.94677734,0.108154304,0.13427734,0
1830,-0.89965826,-0.07299805,0.5090332,0
1831,-0.9411621,-0.15893555,0.6657715,0
1832,-1.088623,-0.4919434,0.8803711,0
1833,-0.5593262,-0.21582031,0.06665039,0
1834,-0.5012207,0.07958985,0.07299805,0
1835,-0.7468262,-0.40722656,0.81274414,0
1836,-0.5847168,-0.5144043,0.73120123,0
1837,-0.5847168,-0.5144043,0.73120123,0
1838,-0.72924805,-0.1826172,1.3483887,0
1839,-0.37304688,0.38842773,0.564209,0
1840,-0.37719727,0.080566406,1.0065918,0
1841,-0.6047363,-0.9748535,1.8547363,0
1842,-0.34936523,-1.0522461,1.471924,0
1843,-0.18041994,-0.15209961,0.62866217,0
1844,-0.14697266,0.35424808,0.47729495,0
1845,-0.1591797,0.1586914,0.38623047,0
1846,-0.27661133,0.04736328,0.3881836,0
1847,-0.4543457,-0.36132812,0.68212897,0
1848,-0.43823242,-0.44067386,0.8449707,0
1849,0.09936524,-1.527588,1.7194825,0
1850,0.1237793,-0.4909668,1.5690918,0
1851,-0.25830078,0.45458987,0.71850586,0
1852,-0.2861328,0.017578125,0.67456055,0
1853,-0.32763672,-0.25390625,0.94677734,0
1854,-0.6594239,0.010253906,1.0134277,0
1855,-0.62231445,0.022705078,0.89575195,0
1856,-0.6323243,0.0703125,0.8811035,0
1857,-0.578125,-0.10839844,0.857666,0
1858,-0.49243164,-0.27929688,0.8374024,0
1859,-0.43286133,-0.4038086,0.77978516,0
1860,-0.4543457,-0.3813477,0.7609863,0
1861,-0.4675293,-0.36865234,0.767334,0
1862,-0.50805664,-0.31298828,0.8212891,0
1863,-0.5085449,-0.2800293,0.8457031,0
1864,-0.48388675,-0.2553711,0.8474121,0
1865,-0.46118167,-0.2426758,0.82592773,0
1866,-0.46679688,-0.2211914,0.8339844,0
1867,-0.47656253,-0.21435547,0.8562012,0
1868,-0.4890137,-0.20971681,0.87060547,0
1869,-0.48974612,-0.20532228,0.8710938,0
1870,-0.46801758,-0.20898439,0.8374024,0
1871,-0.4650879,-0.23022462,0.82666016,0
1872,-0.48120117,-0.25756836,0.83520514,0
1873,-0.48120117,-0.25756836,0.83520514,0
1874,-0.50341797,-0.2644043,0.86328125,0
1875,-0.48291016,-0.23144531,0.8552246,0
1876,-0.46435547,-0.22607422,0.83618164,0
1877,-0.46435547,-0.22607422,0.83618164,0
1878,-0.44360355,-0.22802736,0.8137207,0
1879,-0.44360355,-0.22802736,0.8137207,0
1880,-0.4489746,-0.23999023,0.8195801,0
1881,-0.4489746,-0.23999023,0.8195801,0
1882,-0.46313477,-0.2475586,0.83251953,0
1883,-0.46313477,-0.2475586,0.83251953,0
1884,-0.4787598,-0.26220703,0.84912115,0
1885,-0.4787598,-0.26220703,0.84912115,0
1886,-0.4489746,-0.23779297,0.8271485,0
1887,-0.46118167,-0.22070314,0.8498536,0
1888,-0.45947266,-0.23095705,0.8469239,0
1889,-0.45947266,-0.23095705,0.8469239,0
1890,-0.4619141,-0.24536133,0.8432618,0
1891,-0.4619141,-0.24536133,0.8432618,0
1892,-0.4650879,-0.24853517,0.83886725,0
1893,-0.4658203,-0.23095705,0.83227545,0
1894,-0.49291992,-0.2192383,0.88012695,0
1895,-0.49291992,-0.24584961,0.85253906,0
1896,-0.47753906,-0.22607422,0.83227545,0
1897,-0.47851562,-0.22363283,0.83520514,0
1898,-0.48095706,-0.21826172,0.83984375,0
1899,-0.48291016,-0.21850587,0.8444824,0
1900,-0.48754886,-0.22094727,0.84545904,0
1901,-0.4885254,-0.22241211,0.8444824,0
1902,-0.48486328,-0.22436525,0.8376465,0
1903,-0.48339844,-0.22363283,0.8381348,0
1904,-0.4819336,-0.21240234,0.8413086,0
1905,-0.4853516,-0.21655273,0.84594727,0
1906,-0.48168948,-0.21972656,0.8374024,0
1907,-0.4790039,-0.2211914,0.8330079,0
1908,-0.4814453,-0.2192383,0.83984375,0
1909,-0.48022464,-0.22070314,0.8381348,0
1910,-0.48461917,-0.22265625,0.84228516,0
1911,-0.48120117,-0.21777345,0.84228516,0
1912,-0.48120117,-0.21777345,0.84228516,0
1913,-0.48266602,-0.21386719,0.8381348,0
1914,-0.4890137,-0.21533203,0.8474121,0
1915,-0.4890137,-0.21533203,0.8474121,0
1916,-0.4814453,-0.21240234,0.8339844,0
1917,-0.486084,-0.21386719,0.8503418,0
1918,-0.48706055,-0.21899414,0.84643555,0
1919,-0.48168948,-0.21240234,0.8354492,0
1920,-0.48022464,-0.21020508,0.8376465,0
1921,-0.48022464,-0.21459961,0.8408203,0
1922,-0.48461917,-0.21166992,0.84619147,0
1923,-0.48168948,-0.2084961,0.8496094,0
1924,-0.50512695,-0.23681642,0.87158203,0
1925,-0.4758301,-0.21972656,0.83227545,0
1926,-0.48095706,-0.26611328,0.8242188,0
1927,-0.50561523,-0.27441406,0.9050293,0
1928,-0.5341797,-0.31250003,0.92041016,0
1929,-0.5534668,-0.35644534,0.9814453,0
1930,-0.7766114,-0.47753906,1.3457031,0
1931,-0.73291016,-0.19750977,1.4663086,0
1932,-0.41943362,-0.10668946,1.0236816,0
1933,-0.06518555,0.08178712,0.6152344,0
1934,0.083496094,0.040039062,0.3483887,0
1935,0.12768555,-0.46240234,0.010253906,0
1936,0.09326172,-0.7766114,-0.110839844,0
1937,0.15771486,-0.95947266,0.1105957,0
1938,-0.01586914,-1.0803223,0.27978516,0
1939,-0.27246094,-0.6257325,0.7158204,0
1940,-0.17358398,-0.8212891,0.60180664,0
1941,0.07666016,-1.1022949,-0.000244,0
1942,0.03833008,-1.2868652,0.046142578,0
1943,-0.001220703,-1.1884766,0.23510742,0
1944,0.010253906,-0.7502442,0.52978516,0
1945,0.017333984,-0.66503906,0.6672363,0
1946,-0.05102539,-0.6357422,0.7128907,0
1947,-0.10058594,-0.4626465,0.8234864,0
1948,-0.1328125,-0.31201172,0.98022467,0
1949,-0.11840821,-0.24145508,1.0178223,0
1950,-0.048828125,-0.11547852,1.017334,0
1951,0.19165039,0.07397461,1.1992188,0
1952,0.18627931,0.26660156,1.1147461,0
1953,0.068115234,0.3146973,1.0471191,0
1954,-0.22314453,0.0859375,1.0029297,0
1955,-0.2626953,-0.27319336,1.1584473,0
1956,-0.20141602,-0.1496582,1.0158691,0
1957,-0.1027832,0.11010742,0.7937012,0
1958,-0.1958008,0.05004883,0.701416,0
1959,-0.26953125,0.13427734,0.74487305,0
1960,-0.29882812,0.118652344,0.8103028,0
1961,-0.39379886,-0.01928711,0.9370118,0
1962,-0.37719727,-0.18676758,0.9807129,0
1963,-0.45092776,-0.35986328,1.0163574,0
1964,-0.65185547,0.04492188,1.1989746,0
1965,-0.58325195,-0.10620117,1.0031738,0
1966,-0.37597656,0.18603516,0.7536621,0
1967,-0.47021484,-0.037841797,0.923584,0
1968,-0.4416504,0.01928711,0.90917975,0
1969,-0.4619141,-0.15454102,0.8532715,0
1970,-0.6804199,0.43798828,0.6503906,0
1971,-0.61572266,0.532959,0.3486328,0
1972,-0.67749023,0.5324707,0.32080078,0
1973,-0.65478516,-1.5766603,0.43432617,0
1974,-0.54174805,0.4421387,0.8654785,0
1975,-0.5522461,0.9851074,0.7219238,0
1976,-0.80517584,-0.38256836,0.38842773,0
1977,-1.2033691,-0.19555664,0.6101074,0
1978,-0.79199225,0.24584961,0.41918945,0
1979,-0.96923834,-0.17382814,0.29711914,0
1980,-0.87231445,0.045166016,0.17700195,0
1981,-1.0334473,-0.055175785,0.05297852,0
1982,-1.0541992,0.060791016,0.026123049,0
1983,-1.0048828,-0.033691406,-0.079833984,0
1984,-0.9680176,-0.035888672,-0.08154297,0
1985,-1.0073242,-0.005126953,-0.15942383,0
1986,-0.9777832,-0.007568359,-0.22241211,0
1987,-0.9948731,-0.04492188,-0.18847658,0
1988,-0.97680664,-0.043701172,-0.2993164,0
1989,-0.95703125,-0.05859375,-0.28125,0
1990,-0.982666,-0.080566406,-0.24023438,0
1991,-0.93652344,-0.060546875,-0.3269043,0
1992,-1.0070801,-0.13134766,-0.21899414,0
1993,-0.9846192,-0.063964844,-0.18457031,0
1994,-0.9946289,-0.099853516,-0.20996094,0
1995,-0.94287115,-0.03515625,-0.26538086,0
1996,-0.96313477,-0.08398438,-0.17968751,0
1997,-1.0393066,-0.095458984,-0.09863282,0
1998,-1.2333984,0.018554688,-0.13452148,0
1999,-1.331543,-0.1772461,-0.18334962,0
2000,-1.3588867,-0.37426758,-0.20410156,0
2001,-1.2431641,-0.1430664,-0.1652832,0
2002,-1.2915039,0.14916992,-0.119628906,0
2003,-1.2915039,0.14916992,-0.119628906,0
2004,-0.9384766,0.37524414,-0.28515625,0
2005,-0.95336914,0.4243164,-0.067871094,0
2006,-0.972168,0.11547852,-0.1550293,0
2007,-0.972168,0.11547852,-0.1550293,0
2008,-0.972168,0.11547852,-0.1550293,0
2009,-0.8647461,-0.05664063,-0.012939453,0
2010,-0.86303717,-0.13916016,0.03100586,0
2011,-0.8925781,-0.17944336,0.06298828,0
2012,-0.8747559,-0.16015625,0.05102539,0
2013,-0.8713379,-0.2258301,0.016845703,0
2014,-0.9572754,-0.15405275,0.025390627,0
2015,-1.0412598,-0.17382814,-0.002929688,0
2016,-1.0800781,-0.21069336,0.012207031,0
2017,-1.0563965,-0.24853517,-0.008544922,0
2018,-1.0136719,-0.22070314,-0.034423828,0
2019,-0.9440918,-0.1940918,-0.052490234,0
2020,-0.86035156,-0.17138672,-0.029296875,0
2021,-0.8701172,-0.17773438,0.037109375,0
2022,-0.88671875,-0.21972656,0.05371094,0
2023,-0.8535157,-0.107666016,0.11450195,0
2024,-0.87158203,-0.2463379,0.060546875,0
2025,-0.94946295,-0.47998047,0.26342773,0
2026,-0.92871094,-0.39453128,0.33422852,0
2027,-0.8466797,-0.3647461,0.28637695,0
2028,-0.79248047,-0.5209961,-0.0703125,0
2029,-0.7841797,-0.6125489,-0.19921875,0
2030,-0.7841797,-0.6125489,-0.19921875,0
2031,-0.7561036,-0.7368164,-0.33251953,0
2032,-0.7561036,-0.7368164,-0.33251953,0
2033,-0.82177734,-0.7697754,-0.1591797,0
2034,-0.82177734,-0.7697754,-0.1591797,0
2035,-0.7717285,-0.48315433,0.001708984,0
2036,-0.7717285,-0.48315433,0.001708984,0
2037,-0.83959967,-0.43725586,-0.020019531,0
2038,-0.83959967,-0.43725586,-0.020019531,0
2039,-1.0444336,-0.40161133,0.052734375,0
2040,-1.0444336,-0.40161133,0.052734375,0
2041,-1.0244141,-0.5205078,-0.15673828,0
2042,-0.77124023,-0.20629883,-0.22338867,0
2043,-0.7614746,-0.67822266,-0.107910156,0
2044,-0.7614746,-0.67822266,-0.107910156,0
2045,-0.8166504,-0.5559082,-0.041015625,0
2046,-0.89624023,-0.44750977,0.124267586,0
2047,-1.003418,-0.5107422,-0.12670898,0
2048,-0.7741699,-0.45141602,-0.119384766,0
2049,-0.84252936,-0.3520508,0.1640625,0
2050,-0.8269043,-0.30615234,0.18652344,0
2051,-0.8195801,-0.2529297,0.30029297,0
2052,-0.80029297,-0.3952637,0.31079102,0
2053,-0.8647461,-0.41479492,0.39135742,0
2054,-0.8935547,-0.38745117,0.3615723,0
2055,-0.8510742,-0.48461917,0.24951172,0
2056,-0.87353516,-0.4609375,0.265625,0
2057,-0.9316406,-0.4038086,0.29174805,0
2058,-1.0771484,-0.42675784,0.28173828,0
2059,-0.9382324,-0.5620117,0.10961915,0
2060,-0.84643555,-0.41943362,0.017578125,0
2061,-0.83569336,-0.37060547,0.014404297,0
2062,-0.88183594,-0.4140625,0.012451172,0
2063,-0.9348145,-0.44140628,-0.00390625,0
2064,-0.96435547,-0.49438477,-0.029296875,0
2065,-0.95581055,-0.4873047,-0.040771484,0
2066,-0.9416504,-0.46704105,-0.033691406,0
2067,-0.93359375,-0.42700195,-0.02246094,0
2068,-0.9216309,-0.45507812,0.08251954,0
2069,-0.84838873,-0.48706055,0.084716804,0
2070,-0.8103028,-0.3972168,0.020996096,0
2071,-0.8701172,-0.5263672,0.032470703,0
2072,-0.88647467,-0.57836914,0.07666016,0
2073,-0.8823242,-0.57055664,0.059326172,0
2074,-0.876709,-0.5344238,0.064697266,0
2075,-0.831543,-0.5048828,0.0546875,0
2076,-0.8203125,-0.5012207,0.043701172,0
2077,-0.8029786,-0.5004883,0.030273438,0
2078,-0.82836914,-0.5185547,0.0715332,0
2079,-0.8684082,-0.5053711,0.097167976,0
2080,-0.8796387,-0.5019531,0.075683594,0
2081,-0.8781738,-0.48486328,0.064208984,0
2082,-0.8664551,-0.4692383,0.060302738,0
2083,-0.9020996,-0.45263672,0.04736328,0
2084,-0.9020996,-0.45263672,0.04736328,0
2085,-0.91577154,-0.46704105,0.017089844,0
2086,-0.9411621,-0.49951172,-0.076171875,0
2087,-0.9638672,-0.50439453,-0.06713867,0
2088,-0.96972656,-0.44311523,-0.01586914,0
2089,-1.0358887,-0.4716797,0.005859375,0
2090,-0.94555664,-0.36767578,0.00390625,0
2091,-0.9201661,-0.33618164,0.004394531,0
2092,-0.8215332,-0.26904297,0.009277344,0
2093,-0.9001465,-0.32934573,0.017333984,0
2094,-1.0085449,-0.40966797,0.08276367,0
2095,-1.0185547,-0.375,0.15063477,0
2096,-0.9885254,-0.3671875,0.15405275,0
2097,-0.9711914,-0.36791992,0.15795898,0
2098,-0.8479004,-0.39331055,0.12475586,0
2099,-0.7602539,-0.36621094,0.103515625,0
2100,-0.7209473,-0.34301758,0.092285156,0
2101,-0.8466797,-0.47387695,0.13110352,0
2102,-0.89526373,-0.548584,0.16333008,0
2103,-0.83959967,-0.5358887,0.17968751,0
2104,-0.74560547,-0.4482422,0.34326175,0
2105,-0.6933594,-0.42016605,0.3044434,0
2106,-0.7941895,-0.50024414,0.21557619,0
2107,-0.7941895,-0.50024414,0.21557619,0
2108,-0.8859863,-0.45678714,0.26123047,0
2109,-0.93554693,-0.31933594,0.24023438,0
2110,-0.9777832,-0.42797852,0.18237305,0
2111,-0.9694824,-0.47607422,0.14697266,0
2112,-0.9150391,-0.3347168,0.17822267,0
2113,-0.9123535,-0.33398438,0.13208008,0
2114,-1.0014648,-0.3352051,0.18627931,0
2115,-1.0598145,-0.3981934,0.20629883,0
2116,-0.98315436,-0.37817383,0.16796876,0
2117,-0.8535157,-0.25390625,-0.08666992,0
2118,-0.8305664,-0.32543945,-0.16137697,0
2119,-0.8305664,-0.56518555,-0.13427734,0
2120,-0.8532715,-0.49414065,-0.09741211,0
2121,-0.88012695,-0.51831055,-0.064697266,0
2122,-0.89599615,-0.48315433,0.064697266,0
2123,-0.89575195,-0.60058594,0.059814453,0
2124,-0.8317871,-0.4182129,0.044189457,0
2125,-0.8391113,-0.4272461,0.027587892,0
2126,-0.84814453,-0.43945312,0.032714844,0
2127,-0.8942871,-0.5185547,0.056396484,0
2128,-0.89575195,-0.52197266,0.072753906,0
2129,-0.90722656,-0.5280762,0.0703125,0
2130,-0.9748535,-0.50268555,0.07788086,0
2131,-0.9592285,-0.51660156,0.060058594,0
2132,-0.9250488,-0.4638672,0.014404297,0
2133,-0.8564454,-0.4177246,0.1381836,0
2134,-1.019043,-0.21020508,0.14428711,0
2135,-1.2744141,-0.47265625,-0.17114258,0
2136,-0.944336,-0.37573242,-0.3642578,0
2137,-0.7036133,-0.42260742,-0.30590823,0
2138,-0.71606445,-0.43115237,-0.24560548,0
2139,-0.814209,-0.4282227,-0.13085938,0
2140,-0.8679199,-0.35742188,0.03540039,0
2141,-0.82495123,-0.27783203,0.041503906,0
2142,-0.7631836,-0.2253418,0.051513676,0
2143,-0.71533203,-0.28515625,0.071777344,0
2144,-0.68139654,-0.32275394,0.089111336,0
2145,-0.7961426,-0.3935547,0.140625,0
2146,-0.7961426,-0.3935547,0.140625,0
2147,-0.93603516,-0.47851562,0.19018555,0
2148,-0.9182129,-0.4790039,0.3110352,0
2149,-0.9084473,-0.4243164,0.38281253,0
2150,-0.9245606,-0.37646484,0.4177246,0
2151,-0.95605475,-0.29467773,0.32934573,0
2152,-1.0661621,-0.32543945,0.2548828,0
2153,-1.0534668,-0.47387695,0.3220215,0
2154,-1.0534668,-0.47387695,0.3220215,0
2155,-0.954834,-0.41479492,0.2734375,0
2156,-0.98657227,-0.32714847,0.23999023,0
2157,-1.184082,-0.3083496,0.25830078,0
2158,-1.3442383,-0.19995117,0.16845703,0
2159,-1.284668,-0.12011719,0.07446289,0
2160,-1.284668,-0.12011719,0.07446289,0
2161,-1.1674805,-0.11743164,0.064208984,0
2162,-1.0048828,-0.14819336,0.008300781,0
2163,-0.9519043,-0.20312501,-0.018310547,0
2164,-0.9367676,-0.3220215,-0.053222656,0
2165,-0.9904786,-0.79492193,-0.068359375,0
2166,-0.96728516,-0.88574225,-0.08886719,0
2167,-0.70483404,-0.5415039,-0.0979004,0
2168,-0.57177734,-0.32666016,-0.10571289,0
2169,-0.5888672,-0.33081058,-0.0913086,0
2170,-0.70214844,-0.5085449,-0.051757812,0
2171,-0.68505865,-0.57788086,-0.05029297,0
2172,-0.66137695,-0.74487305,-0.04199219,0
2173,-0.49169922,-0.7805176,0.03491211,0
2174,-0.3520508,-0.52001953,0.19384766,0
2175,-0.52856445,-0.44628906,0.23828126,0
2176,-0.8708496,-0.64746094,0.24707033,0
2177,-0.8479004,-0.5595703,0.2084961,0
2178,-0.83496094,-0.4440918,0.16357423,0
2179,-0.98242193,-0.392334,0.21118166,0
2180,-0.9750977,-0.35595703,0.24682617,0
2181,-0.9543457,-0.3747559,0.23413086,0
2182,-0.84912115,-0.29296875,0.23535158,0
2183,-0.8071289,-0.14990234,0.21142578,0
2184,-0.8071289,-0.14990234,0.21142578,0
2185,-0.8664551,-0.10864258,0.32885742,0
2186,-0.8664551,-0.10864258,0.32885742,0
2187,-0.85180664,-0.12158203,0.31616214,0
2188,-0.85180664,-0.12158203,0.31616214,0
2189,-0.84228516,-0.11108399,0.32641605,0
2190,-0.84228516,-0.11108399,0.32641605,0
2191,-0.8742676,-0.002685547,0.36328125,0
2192,-0.8742676,-0.002685547,0.36328125,0
2193,-0.96240234,-0.11791992,0.3203125,0
2194,-1.0187988,-0.15991212,0.7155762,0
2195,-1.1154785,-0.60058594,0.6159668,0
2196,-1.1154785,-0.60058594,0.6159668,0
2197,-1.0410156,-0.5229492,0.3840332,0
2198,-0.9614258,-0.25683594,0.2529297,0
2199,-0.96533203,-0.21533203,0.27563477,0
2200,-1.0231934,-0.24340822,0.25927734,0
2201,-1.0117188,-0.49316406,0.37426758,0
2202,-0.24829102,-0.42871094,0.48046875,0
2203,-0.17529298,-0.31152344,0.48339844,0
2204,-0.19433595,0.15527344,0.6064453,0
2205,-0.2541504,0.20874023,0.6999512,0
2206,-0.38183594,0.09350587,0.8981934,0
2207,-0.59277344,-0.08886719,0.9724121,0
2208,-0.9018555,0.15698244,0.94677734,0
2209,-1.3244629,-0.040039062,0.74560547,0
2210,-1.0231934,-0.30395508,0.58740234,0
2211,-0.45336914,-0.3881836,0.98876953,0
2212,-0.10205078,-0.98339844,1.1831055,0
2213,-0.10205078,0.15820312,0.63256836,0
2214,0.25683594,-1.2094727,0.58374023,0
2215,0.9367676,-0.36767578,1.1572266,0
2216,0.08227539,0.16503908,1.9743654,0
2217,0.93603516,-0.2841797,0.9946289,0
2218,0.05493164,-0.30566406,0.55078125,0
2219,0.17138672,-1.1005859,0.4421387,0
2220,0.077392586,-1.1838379,0.5202637,0
2221,-0.045410156,-0.8579102,0.4284668,0
2222,0.03491211,-0.7866211,0.54003906,0
2223,0.099609375,-0.73217773,0.5793457,0
2224,0.17675783,-0.69458014,0.720459,0
2225,0.18847658,-0.66918945,0.76953125,0
2226,0.18359375,-0.5004883,0.8642578,0
2227,0.18627931,-0.4992676,0.76293945,0
2228,0.19702148,-0.5686035,0.68774414,0
2229,0.1586914,-0.6799317,0.72827154,0
2230,0.13696289,-0.59765625,0.7351074,0
2231,0.12451172,-0.50878906,0.7709961,0
2232,0.10644531,-0.49951172,0.8364258,0
2233,0.081054695,-0.5656738,0.8615723,0
2234,0.09106445,-0.560791,0.7944336,0
2235,0.08886719,-0.5949707,0.7512207,0
2236,0.1328125,-0.63159186,0.7614746,0
2237,0.119384766,-0.56933594,0.75927734,0
2238,0.10913086,-0.5463867,0.7609863,0
2239,0.10913086,-0.5463867,0.7609863,0
2240,0.14038086,-0.6220704,0.76489264,0
2241,0.14208984,-0.60083014,0.7675781,0
2242,0.13183594,-0.5776367,0.77856445,0
2243,0.1213379,-0.5864258,0.77685547,0
2244,0.11816406,-0.5942383,0.75512695,0
2245,0.13378906,-0.5908203,0.76196295,0
2246,0.14013672,-0.5715332,0.78930664,0
2247,0.14013672,-0.5673828,0.7937012,0
2248,0.12036133,-0.5698242,0.78125,0
2249,0.10864258,-0.5942383,0.7729493,0
2250,0.10742188,-0.5876465,0.75805664,0
2251,0.1027832,-0.5839844,0.75170904,0
2252,0.106933594,-0.5913086,0.75561523,0
2253,0.11645508,-0.5883789,0.7734375,0
2254,0.14331055,-0.57470703,0.7810059,0
2255,0.17919922,-0.57592773,0.7519531,0
2256,0.19848633,-0.5986328,0.7368164,0
2257,0.10913086,-0.55029297,0.7678223,0
2258,0.05664063,-0.5258789,0.8000489,0
2259,0.003662109,-0.47338867,0.8515625,0
2260,0.016357422,-0.57177734,0.9069825,0
2261,0.07128906,-0.5974121,0.81542975,0
2262,0.1027832,-0.5671387,0.7561036,0
2263,0.1352539,-0.57177734,0.7463379,0
2264,0.09863282,-0.5488281,0.7849121,0
2265,0.06323242,-0.53759766,0.8110352,0
2266,0.046875,-0.5358887,0.8149414,0
2267,0.06103516,-0.5605469,0.8017578,0
2268,0.07495117,-0.5449219,0.8112793,0
2269,0.1027832,-0.5444336,0.8178711,0
2270,0.1003418,-0.54174805,0.80590826,0
2271,0.07763672,-0.5527344,0.80151373,0
2272,0.06933594,-0.5534668,0.8010254,0
2273,0.076171875,-0.5505371,0.7873535,0
2274,0.081054695,-0.5566406,0.7849121,0
2275,0.0769043,-0.5595703,0.79541016,0
2276,0.06933594,-0.56030273,0.80688477,0
2277,0.07299805,-0.5493164,0.8105469,0
2278,0.07519532,-0.56152344,0.8105469,0
2279,0.07495117,-0.55566406,0.8066407,0
2280,0.075683594,-0.54785156,0.7944336,0
2281,0.07519532,-0.5476074,0.78564453,0
2282,0.067871094,-0.5505371,0.7976074,0
2283,0.071777344,-0.5505371,0.80493164,0
2284,0.072021484,-0.54663086,0.7998047,0
2285,0.06982422,-0.5402832,0.8017578,0
2286,0.06347656,-0.5415039,0.8129883,0
2287,0.0637207,-0.54467773,0.8203125,0
2288,0.06347656,-0.5410156,0.7934571,0
2289,0.05859375,-0.5559082,0.7915039,0
2290,0.06738281,-0.5720215,0.7941895,0
2291,0.063964844,-0.5551758,0.8078613,0
2292,0.051757812,-0.48876953,0.85180664,0
2293,0.05664063,-0.49633792,0.8798829,0
2294,0.076416016,-0.4946289,0.9916992,0
2295,0.09204102,-0.94653326,0.60498047,0
2296,0.09204102,-0.94653326,0.60498047,0
2297,0.1586914,-0.8808594,0.4853516,0
2298,0.048339844,-0.6154786,0.39208984,0
2299,0.055664062,-0.9213867,0.5019531,0
2300,0.0690918,-0.529541,0.75439453,0
2301,0.15966797,-0.60522467,0.51049805,0
2302,0.19018555,-0.6835938,0.51171875,0
2303,0.13574219,-0.60253906,0.723877,0
2304,0.13305664,-0.6235352,0.6865235,0
2305,0.1809082,-0.63623047,0.62475586,0
2306,0.17382814,-0.5539551,0.71899414,0
2307,0.1352539,-0.5620117,0.6789551,0
2308,0.092285156,-0.6958008,0.76928717,0
2309,0.04663086,-0.73461914,0.883545,0
2310,-0.013671875,-0.6103516,0.82934576,0
2311,-0.02246094,-0.53344727,0.70166016,0
2312,-0.07714844,-0.5344238,0.8081055,0
2313,-0.2290039,-0.5656738,0.9343262,0
2314,-0.2290039,-0.5656738,0.9343262,0
2315,-0.24609375,-0.52905273,0.86035156,0
2316,-0.24731445,-0.5217285,0.8215332,0
2317,-0.19482422,-0.89941406,0.7849121,0
2318,-0.25317383,-0.6833496,0.7106934,0
2319,-0.22607422,-0.7023926,0.70288086,0
2320,-0.22607422,-0.7023926,0.70288086,0
2321,-0.46020508,-0.65234375,0.8039551,0
2322,-0.81542975,-0.37353516,0.4589844,0
2323,-0.81542975,-0.37353516,0.4589844,0
2324,-0.8271485,-0.36108398,0.48022464,0
2325,-0.6772461,-0.37915042,0.43261722,0
2326,-0.7341309,-0.829834,0.10131836,0
2327,-1.1032715,-0.5656738,0.16699219,0
2328,-1.2062988,-0.4169922,0.1574707,0
2329,-1.1953125,-0.3671875,0.09204102,0
2330,-0.97924805,-0.46899414,-0.10498047,0
2331,-0.925293,-0.5366211,-0.02685547,0
2332,-0.79565436,-0.425293,-0.05371094,0
2333,-0.79565436,-0.425293,-0.05371094,0
2334,-0.85839844,-0.53344727,-0.11035157,0
2335,-0.86987305,-0.4580078,-0.25268555,0
2336,-0.86987305,-0.4580078,-0.25268555,0
2337,-0.94311523,-0.5629883,-0.23681642,0
2338,-0.94311523,-0.5629883,-0.23681642,0
2339,-0.9748535,-0.32763672,-0.0925293,0
2340,-0.9748535,-0.32763672,-0.0925293,0
2341,-0.9611817,-0.57299805,-0.16381836,0
2342,-0.9611817,-0.57299805,-0.16381836,0
2343,-0.84545904,-0.61206055,-0.19873048,0
2344,-0.84545904,-0.61206055,-0.19873048,0
2345,-0.7971192,-0.5493164,-0.08520508,0
2346,-0.7727051,-0.63134766,-0.10742188,0
2347,-0.67456055,-0.5073242,-0.04296875,0
2348,-0.67456055,-0.5073242,-0.04296875,0
2349,-0.72436523,-0.4655762,-0.07885743,0
2350,-0.72436523,-0.4655762,-0.07885743,0
2351,-0.9433594,-0.75439453,-0.21679688,0
2352,-1.1391602,-0.44091797,0.06616211,0
2353,-1.1638184,-0.27319336,0.03466797,0
2354,-0.75561523,-0.33959964,-0.11108399,0
2355,-0.67773443,-0.36303714,-0.033935547,0
2356,-0.64282227,-0.35620117,-0.008544922,0
2357,-0.6220704,-0.35229492,-0.009277344,0
2358,-0.63916016,-0.41552734,-0.01928711,0
2359,-0.64770514,-0.45751956,-0.037109375,0
2360,-0.72998047,-0.43530273,0.0234375,0
2361,-0.82177734,-0.5395508,-0.119628906,0
2362,-0.90283203,-0.7175293,-0.14257812,0
2363,-0.9543457,-0.72216797,-0.016845703,0
2364,-0.85253906,-0.53393555,-0.011474609,0
2365,-0.8691406,-0.46728516,0.002685547,0
2366,-0.9453125,-0.44677734,0.027587892,0
2367,-0.8571778,-0.6062012,0.07348633,0
2368,-0.85546875,-0.6132813,0.06762695,0
2369,-0.70776373,-0.5498047,0.068603516,0
2370,-0.6677246,-0.5908203,0.09399414,0
2371,-0.6628418,-0.72143555,0.14770508,0
2372,-0.6135254,-0.5571289,-0.020263674,0
2373,-0.5620117,-0.7651367,-0.21875,0
2374,-0.3083496,-0.62402344,0.10107422,0
2375,-0.44848633,-0.48046875,-0.020751953,0
2376,-0.48999023,-0.5539551,-0.004150391,0
2377,-0.69506836,-0.7575684,-0.27197266,0
2378,-0.7109375,-0.944336,-0.28833008,0
2379,-0.75219727,-1.0102539,-0.23364258,0
2380,-0.68310547,-0.61206055,0.047851566,0
2381,-0.810791,-0.701416,0.25073242,0
2382,-0.86865234,-0.8105469,0.14770508,0
2383,-0.87524414,-0.6462403,0.087402344,0
2384,-0.8549805,-0.54956055,0.123291016,0
2385,-0.8740235,-0.5109863,0.11914063,0
2386,-0.8503418,-0.51708984,0.118652344,0
2387,-0.89331055,-0.5776367,0.25,0
2388,-0.7766114,-0.3786621,0.24560548,0
2389,-0.79174805,-0.35961914,0.22363283,0
2390,-0.7763672,-0.32080078,0.26733398,0
2391,-0.84887695,-0.51538086,0.28076172,0
2392,-0.8339844,-0.43579102,0.26049805,0
2393,-0.79858404,-0.34765628,0.25927734,0
2394,-0.79272467,-0.28710938,0.29077148,0
2395,-0.7668457,-0.33789062,0.3513184,0
2396,-0.76586914,-0.39672855,0.34033206,0
2397,-0.7512207,-0.5913086,0.25756836,0
2398,-0.8166504,-0.6206055,0.31445312,0
2399,-0.82250977,-0.62109375,0.35229492,0
2400,-0.7687988,-0.5739746,0.44995117,0
2401,-0.7072754,-0.41723636,0.37280273,0
2402,-0.75439453,-0.41918945,0.35351565,0
2403,-0.9145508,-0.5222168,0.08642578,0
2404,-0.89624023,-0.7128907,-0.008789063,0
2405,-0.8581543,-0.68847656,0.01586914,0
2406,-0.83886725,-0.5437012,-0.021728517,0
2407,-0.85180664,-0.6032715,-0.039062504,0
2408,-0.85595703,-0.54174805,-0.032470703,0
2409,-0.8186035,-0.52905273,-0.021728517,0
2410,-0.7470703,-0.5227051,0.010009766,0
2411,-0.7473145,-0.5961914,0.09375,0
2412,-0.76660156,-0.6931153,0.11425781,0
2413,-0.71899414,-0.5500488,0.036865234,0
2414,-0.6113281,-0.29052734,0.05493164,0
2415,-0.90283203,-0.7841797,0.0234375,0
2416,-0.91577154,-0.6594239,0.07324219,0
2417,-0.9189453,-0.6459961,0.15576172,0
2418,-0.92041016,-0.609375,0.13989258,0
2419,-0.8269043,-0.59228516,0.08032227,0
2420,-0.9150391,-0.6208496,-0.009521484,0
2421,-1.2109375,-0.74243164,-0.03173828,0
2422,-1.1379395,-0.62475586,-0.05004883,0
2423,-0.9069825,-0.40258792,0.02368164,0
2424,-0.92285156,-0.3684082,0.13330078,0
2425,-0.97387695,-0.392334,0.16918945,0
2426,-0.7775879,-0.42138672,0.12841797,0
2427,-0.65795904,-0.50219727,0.079833984,0
2428,-0.6337891,-0.45288086,0.12524414,0
2429,-0.69189453,-0.40014648,0.15820312,0
2430,-0.7453613,-0.45043945,0.23950195,0
2431,-0.66455084,-0.47924805,0.22021484,0
2432,-0.626709,-0.53222656,0.21728516,0
2433,-0.5925293,-0.51123047,0.34301758,0
2434,-0.6198731,-0.4458008,0.4104004,0
2435,-0.6101074,-0.6208496,0.2927246,0
2436,-0.77880865,-0.6069336,0.24707033,0
2437,-0.9814453,-0.60913086,0.32299805,0
2438,-1.0415039,-0.6555176,0.26049805,0
2439,-0.9016113,-1.0817871,0.053222656,0
2440,-0.6359864,-0.16503908,0.10913086,0
2441,-0.6328125,-0.31274414,-0.123046875,0
2442,-0.79565436,-0.76562506,-0.22485352,0
2443,-0.8564454,-0.7934571,-0.17138672,0
2444,-0.8105469,-0.63525397,-0.015136719,0
2445,-0.66821295,-0.64282227,0.04321289,0
2446,-0.6845703,-0.5908203,0.009521484,0
2447,-0.72924805,-0.50097656,0.043701172,0
2448,-0.82543945,-0.55126953,-0.005859375,0
2449,-0.82250977,-0.6591797,-0.14697266,0
2450,-0.904541,-0.4248047,-0.09057618,0
2451,-0.91870123,-0.38842773,0.011962892,0
2452,-0.9809571,-0.6291504,0.05371094,0
2453,-1.0388184,-0.7858887,0.04492188,0
2454,-1.1132812,-0.81884766,0.07421875,0
2455,-0.9694824,-0.69458014,0.119873054,0
2456,-0.7675781,-0.40917972,0.14990234,0
2457,-0.7165528,-0.25024414,-0.07055664,0
2458,-1.1254883,-0.3942871,0.03955078,0
2459,-0.97949225,-0.5649414,0.029296875,0
2460,-0.79833984,-0.5270996,0.09838867,0
2461,-0.75903326,-0.5439453,0.13696289,0
2462,-0.76489264,-0.54589844,0.14819336,0
2463,-0.784668,-0.5126953,0.09375,0
2464,-0.7248535,-0.5004883,0.053222656,0
2465,-0.77148443,-0.37670898,0.059326172,0
2466,-0.8757324,-0.3249512,0.07421875,0
2467,-0.85668945,-0.3117676,0.068603516,0
2468,-0.83984375,-0.5019531,0.2126465,0
2469,-0.8581543,-0.4645996,0.036376953,0
2470,-0.8701172,-0.4584961,-0.029541016,0
2471,-0.9370118,-0.45629883,0.004150391,0
2472,-0.9658203,-0.39770508,0.068359375,0
2473,-0.9538575,-0.4206543,0.027587892,0
2474,-0.94750977,-0.42578125,-0.003173828,0
2475,-0.92211914,-0.39648438,-0.10498047,0
2476,-1.020752,-0.77978516,-0.19482422,0
2477,-0.9116211,-0.88378906,-0.2644043,0
2478,-0.8430176,-0.68237305,-0.2866211,0
2479,-0.68847656,-0.57373047,-0.18139648,0
2480,-0.6750488,-0.5842285,-0.15161133,0
2481,-0.6435547,-0.55322266,-0.08300781,0
2482,-0.7163086,-0.5576172,-0.013183594,0
2483,-0.7875977,-0.5419922,0.05493164,0
2484,-0.8149414,-0.57373047,0.06518555,0
2485,-0.84936523,-0.6125489,0.033447266,0
2486,-0.88256836,-0.58691406,0.020263674,0
2487,-0.8852539,-0.46044925,0.05859375,0
2488,-0.8972168,-0.55078125,0.15283203,0
2489,-0.91748047,-0.5876465,0.14697266,0
2490,-0.9243164,-0.65600586,0.1508789,0
2491,-0.9243164,-0.65600586,0.1508789,0
2492,-0.85937506,-0.52441406,0.12231445,0
2493,-0.85937506,-0.52441406,0.12231445,0
2494,-0.7905274,-0.4458008,0.36254883,0
2495,-0.7905274,-0.4458008,0.36254883,0
2496,-0.7661133,-0.51342773,0.22216798,0
2497,-0.7661133,-0.51342773,0.22216798,0
2498,-0.84545904,-0.5961914,0.25341797,0
2499,-0.84545904,-0.5961914,0.25341797,0
2500,-0.8017578,-0.46875,0.13867188,0
2501,-0.7807617,-0.45288086,0.108154304,0
2502,-0.7866211,-0.5686035,0.06738281,0
2503,-0.7866211,-0.5686035,0.06738281,0
2504,-0.82250977,-0.5571289,0.068847656,0
2505,-0.8601075,-0.4958496,0.08862305,0
2506,-0.84350586,-0.4750977,0.10009766,0
2507,-0.8376465,-0.45092776,0.18725586,0
2508,-0.9008789,-0.45971683,0.25048828,0
2509,-0.89624023,-0.43823242,0.25024414,0
2510,-0.8872071,-0.42626953,0.23876953,0
2511,-0.86230475,-0.41943362,0.2409668,0
2512,-0.85302734,-0.4152832,0.24023438,0
2513,-0.86303717,-0.43994144,0.23242189,0
2514,-0.86303717,-0.43994144,0.23242189,0
2515,-0.857666,-0.44702148,0.23071289,0
2516,-0.84912115,-0.44921875,0.23510742,0
2517,-0.84521484,-0.45361328,0.23852539,0
2518,-0.8439942,-0.46166992,0.2319336,0
2519,-0.829834,-0.47436526,0.22387695,0
2520,-0.81591797,-0.48950195,0.22436525,0
2521,-0.8234864,-0.49487308,0.22070314,0
2522,-0.8334961,-0.47265625,0.21142578,0
2523,-0.8408203,-0.49633792,0.22021484,0
2524,-0.8305664,-0.50268555,0.21118166,0
2525,-0.8317871,-0.50024414,0.20336914,0
2526,-0.8532715,-0.50683594,0.20483398,0
2527,-0.8476563,-0.51049805,0.20581055,0
2528,-0.8439942,-0.48779297,0.2055664,0
2529,-0.85375977,-0.49829102,0.20971681,0
2530,-0.83667,-0.49291992,0.19873048,0
2531,-0.76000977,-0.47387695,0.1171875,0
2532,-0.8522949,-0.46020508,0.17944336,0
2533,-0.85937506,-0.43579102,0.18066406,0
2534,-0.8532715,-0.42333984,0.13867188,0
2535,-0.8691406,-0.43652344,0.140625,0
2536,-0.9814453,-0.49414065,0.15649414,0
2537,-0.9536133,-0.44140628,0.123291016,0
2538,-0.9277344,-0.3815918,0.119628906,0
2539,-0.9047852,-0.3417969,0.16015625,0
2540,-0.8701172,-0.40722656,0.14257812,0
2541,-0.8701172,-0.40722656,0.14257812,0
2542,-0.8701172,-0.40722656,0.14257812,0
2543,-0.8842774,-0.45336914,0.15991212,0
2544,-0.8647461,-0.46313477,0.12451172,0
2545,-0.8647461,-0.46313477,0.12451172,0
2546,-0.864502,-0.46606445,0.13647461,0
2547,-0.9226074,-0.5185547,0.13891602,0
2548,-0.8198243,-0.43725586,0.13085938,0
2549,-0.8337403,-0.5036621,0.12182617,0
2550,-0.8803711,-0.48413086,0.08569336,0
2551,-0.8803711,-0.48413086,0.08569336,0
2552,-0.8232422,-0.40649414,0.037109375,0
2553,-0.8391113,-0.421875,0.052246097,0
2554,-0.8391113,-0.421875,0.052246097,0
2555,-0.8535157,-0.41845703,0.06616211,0
2556,-0.81591797,-0.4187012,0.06298828,0
2557,-0.8522949,-0.3718262,0.08764649,0
2558,-0.86987305,-0.3947754,0.107177734,0
2559,-0.89697266,-0.4523926,0.1616211,0
2560,-0.94970703,-0.48388675,0.1652832,0
2561,-0.7434082,-0.25952148,0.059326172,0
2562,-0.7434082,-0.25952148,0.059326172,0
2563,-0.7001953,0.0078125,-0.22460938,0
2564,-0.5266113,-0.46166992,0.099853516,0
2565,-0.78833014,-1.1755371,0.5864258,0
2566,-0.71118164,-0.7407227,0.30859375,0
2567,-0.7229004,-1.2646486,0.10571289,0
2568,-0.54248047,-0.61572266,0.12084961,0
2569,-0.54248047,-0.61572266,0.12084961,0
2570,-0.46948242,-0.50683594,0.025878906,0
2571,-0.34252933,-0.43017578,-0.05908203,0
2572,-0.331543,-0.4892578,-0.017822266,0
2573,-0.4777832,-0.76196295,0.34252933,0
2574,-0.4992676,-0.5024414,0.1723633,0
2575,-0.5834961,-1.2756349,0.24536133,0
2576,-0.7380371,-1.2177736,0.6733399,0
2577,-0.265625,-0.40039065,0.82958984,0
2578,-0.44946292,-1.7490234,1.0117188,0
2579,0.6298828,-2.1640625,0.22021484,0
2580,0.64086914,-1.9831544,0.34155273,0
2581,0.06298828,-0.7866211,0.6791993,0
2582,0.4018555,-0.8972168,0.5554199,0
2583,0.609375,-0.6772461,0.79541016,0
2584,0.4824219,-0.4992676,0.9580078,0
2585,0.46899414,-0.5852051,0.95703125,0
2586,0.5839844,-0.83251953,0.68139654,0
2587,0.47021484,-0.5305176,0.48120117,0
2588,-0.033203125,-0.8198243,0.91674805,0
2589,0.15234375,-0.33618164,0.9797363,0
2590,0.3344727,-0.17626953,0.76293945,0
2591,0.17797852,-0.77490234,0.44482422,0
2592,-0.084228516,-0.6132813,0.65405273,0
2593,-0.084228516,-0.6132813,0.65405273,0
2594,0.012939453,-0.82495123,0.25512695,0
2595,0.017089844,-0.86523443,0.4589844,0
2596,0.04199219,-0.9267579,0.46484378,0
2597,0.24121095,-0.9677735,0.45947266,0
2598,0.76562506,-0.925293,0.79199225,0
2599,0.6396485,-0.7072754,0.96655273,0
2600,0.3408203,-0.6855469,0.8186035,0
2601,0.22924805,-0.8007813,0.69824225,0
2602,0.010498048,-0.8063965,0.6298828,0
2603,-0.079833984,-0.72143555,0.6264649,0
2604,-0.013916016,-0.68139654,0.532959,0
2605,0.015380859,-0.7604981,0.46044925,0
2606,0.07470703,-0.72460943,0.49633792,0
2607,0.09472656,-0.6911621,0.546875,0
2608,0.10961915,-0.68798834,0.59594727,0
2609,0.14477539,-0.72558594,0.69433594,0
2610,0.12890625,-0.7060547,0.69921875,0
2611,0.09741211,-0.7326661,0.68188477,0
2612,0.052490234,-0.75634766,0.66503906,0
2613,0.0715332,-0.7509766,0.64843756,0
2614,0.09082031,-0.75,0.64770514,0
2615,0.09375,-0.72534186,0.6403809,0
2616,0.06201172,-0.6994629,0.62841797,0
2617,0.055175785,-0.6997071,0.62890625,0
2618,0.05859375,-0.7092286,0.63256836,0
2619,0.061523438,-0.7141113,0.63085943,0
2620,0.06640625,-0.7165528,0.63720703,0
2621,0.07958985,-0.72216797,0.63842773,0
2622,0.077392586,-0.7326661,0.6706543,0
2623,0.068115234,-0.72631836,0.67285156,0
2624,0.072021484,-0.7116699,0.6530762,0
2625,0.072753906,-0.7163086,0.6499024,0
2626,0.08032227,-0.71850586,0.6394043,0
2627,0.06591797,-0.70458984,0.642334,0
2628,0.06689453,-0.7104492,0.644043,0
2629,0.06689453,-0.7104492,0.644043,0
2630,0.06958008,-0.7209473,0.6462403,0
2631,0.068847656,-0.7192383,0.64917,0
2632,0.07128906,-0.71533203,0.65405273,0
2633,0.06958008,-0.7199707,0.6574707,0
2634,0.07299805,-0.7172852,0.65429693,0
2635,0.07592774,-0.717041,0.6528321,0
2636,0.071777344,-0.71508795,0.64868164,0
2637,0.064208984,-0.7143555,0.65478516,0
2638,0.068603516,-0.71899414,0.6508789,0
2639,0.06518555,-0.7199707,0.6535645,0
2640,0.053222656,-0.6984863,0.67846686,0
2641,0.043457035,-0.6921387,0.68237305,0
2642,0.0913086,-0.736084,0.6171875,0
2643,0.05297852,-0.82495123,0.68774414,0
2644,0.05297852,-0.82495123,0.68774414,0
2645,0.055664062,-0.857666,0.6899414,0
2646,0.064208984,-0.9470215,0.6293946,0
2647,0.064208984,-0.9470215,0.6293946,0
2648,0.06103516,-0.9011231,0.45874023,0
2649,0.06103516,-0.9011231,0.45874023,0
2650,0.10742188,-0.5683594,0.53466797,0
2651,0.10742188,-0.5683594,0.53466797,0
2652,0.115722656,-0.5517578,0.7604981,0
2653,0.115722656,-0.5517578,0.7604981,0
2654,0.36083987,-0.30908203,0.8007813,0
2655,0.36083987,-0.30908203,0.8007813,0
2656,0.30126953,-0.6225586,0.7470703,0
2657,0.30126953,-0.6225586,0.7470703,0
2658,0.30126953,-0.6225586,0.7470703,0
2659,0.30126953,-0.6225586,0.7470703,0
2660,0.25195312,-0.74218756,0.7326661,0
2661,0.18139648,-0.77807623,0.70825195,0
2662,-0.059814453,-0.7392579,0.6965332,0
2663,-0.11767579,-0.6386719,0.6386719,0
2664,-0.072265625,-0.6594239,0.65112305,0
2665,-0.09765625,-0.5983887,0.83886725,0
2666,-0.084472656,-0.6396485,0.7441406,0
2667,-0.2211914,-0.9216309,0.5180664,0
2668,-0.3010254,-0.9172364,0.58154297,0
2669,-0.30224612,-0.87280273,0.5461426,0
2670,-0.35009766,-0.6271973,0.5817871,0
2671,-0.3850098,-0.56152344,0.5563965,0
2672,-0.6516113,-0.70874023,0.20361328,0
2673,-1.1955566,-0.97314453,0.3881836,0
2674,-0.73535156,-0.5751953,0.7700196,0
2675,-0.53881836,-0.4675293,0.6567383,0
2676,-0.31323245,-0.57592773,0.060791016,0
2677,-0.9680176,-0.8046875,-0.13549805,0
2678,-1.6096193,-0.66064453,-0.114990234,0
2679,-1.0397949,-0.103271484,-0.18847658,0
2680,-0.888916,-0.30639648,-0.119384766,0
2681,-0.67773443,-0.3371582,-0.12988281,0
2682,-0.73291016,-0.39965823,-0.13964844,0
2683,-0.81225586,-0.36132812,-0.22338867,0
2684,-0.8083496,-0.37622073,-0.29833984,0
2685,-0.8881836,-0.54711914,-0.18066406,0
2686,-0.8195801,-0.35961914,-0.2890625,0
2687,-0.8195801,-0.35961914,-0.2890625,0
2688,-0.88623047,-0.44726565,-0.42211914,0
2689,-0.8671875,-0.29467773,-0.41137698,0
2690,-0.8874512,-0.5559082,-0.34252933,0
2691,-0.8391113,-0.63623047,-0.12890625,0
2692,-0.5612793,-0.626709,-0.012939453,0
2693,-0.49682617,-0.5559082,-0.05664063,0
2694,-0.64282227,-0.50756836,0.06616211,0
2695,-1.1809082,-0.42309573,-0.013916016,0
2696,-1.2219238,-0.3918457,-0.1237793,0
2697,-1.1125488,-0.40893555,-0.31420898,0
2698,-1.0524902,-0.4243164,0.024902344,0
2699,-1.2758789,-0.53564453,0.084716804,0
2700,-1.2097169,-0.42675784,0.108154304,0
2701,-1.2070312,-0.40991214,0.04931641,0
2702,-1.1503906,-0.27148438,-0.027587892,0
2703,-1.0852051,-0.18701173,-0.061523438,0
2704,-0.96899414,-0.15844728,-0.05053711,0
2705,-0.9182129,-0.23217773,0.029296875,0
2706,-0.91210943,-0.23852539,0.03833008,0
2707,-0.8564454,-0.29589844,0.05004883,0
2708,-0.72143555,-0.32641605,0.03564453,0
2709,-0.6723633,-0.29785156,0.005859375,0
2710,-0.6135254,-0.2890625,-0.008789063,0
2711,-0.6125489,-0.30957034,0.001220703,0
2712,-0.6201172,-0.30981445,0.021240234,0
2713,-0.6376953,-0.30004886,0.020263674,0
2714,-0.58081055,-0.34106448,0.023193361,0
2715,-0.60156256,-0.36303714,0.055908207,0
2716,-0.7331543,-0.40527344,0.03759766,0
2717,-0.8779297,-0.45654297,0.039062504,0
2718,-1.0913086,-0.60424805,0.08300781,0
2719,-1.0917969,-0.64819336,0.0859375,0
2720,-1.1081543,-0.677002,0.04199219,0
2721,-1.1816406,-0.954834,0.087890625,0
2722,-1.2058105,-0.50390625,0.042724613,0
2723,-1.041748,-0.35327148,0.14379883,0
2724,-0.9948731,-0.4289551,0.22265625,0
2725,-0.95410156,-0.27905273,0.26953125,0
2726,-0.9311524,-0.45214844,0.25561523,0
2727,-0.8308106,-0.6179199,0.18310547,0
2728,-0.78930664,-0.63793945,0.15991212,0
2729,-0.9536133,-0.5776367,0.06689453,0
2730,-1.0336914,-0.5192871,-0.004150391,0
2731,-1.0192871,-0.4450684,-0.02685547,0
2732,-1.0712891,-0.38330078,0.002441407,0
2733,-1.1430664,-0.32177734,-0.007080079,0
2734,-1.0695801,-0.3334961,-0.022216797,0
2735,-1.0339355,-0.421875,-0.002441407,0
2736,-0.96435547,-0.45312503,0.01171875,0
2737,-0.8813477,-0.4516602,0.014404297,0
2738,-0.77124023,-0.4187012,0.028808594,0
2739,-0.7636719,-0.36767578,0.042236328,0
2740,-0.77978516,-0.37524414,0.05126953,0
2741,-0.7839356,-0.37890625,0.06591797,0
2742,-0.7932129,-0.38232422,0.087402344,0
2743,-0.88671875,-0.3815918,0.15673828,0
2744,-0.9958496,-0.41918945,0.3579102,0
2745,-0.87719727,-0.22924805,0.21435547,0
2746,-0.76904297,-0.29003906,0.18041994,0
2747,-0.7211914,-0.31323245,0.25390625,0
2748,-0.9067383,-0.34765628,0.30590823,0
2749,-1.0344238,-0.4741211,0.35620117,0
2750,-1.0344238,-0.4741211,0.35620117,0
2751,-0.9394531,-0.7717285,0.114990234,0
2752,-0.8845215,-0.26342773,0.079833984,0
2753,-0.8833008,0.23803711,0.34252933,0
2754,-0.9265137,0.108154304,0.6271973,0
2755,-0.88916016,-0.003662109,0.49804688,0
2756,-0.904541,-0.24731445,0.27172852,0
2757,-0.79589844,-0.51171875,0.21997072,0
2758,-0.68310547,-0.58374023,0.19311523,0
2759,-0.66137695,-0.5891113,0.17919922,0
2760,-0.795166,-0.46337894,0.31542972,0
2761,-0.9201661,-0.4047852,0.32299805,0
2762,-1.0236816,-0.43701175,0.34912112,0
2763,-0.9243164,-0.54833984,0.36450198,0
2764,-0.9694824,-0.5407715,0.1171875,0
2765,-0.9694824,-0.5407715,0.1171875,0
2766,-1.1206055,-0.6271973,0.006347657,0
2767,-1.1638184,-0.66162115,0.100830086,0
2768,-1.0422363,-0.4553223,0.08032227,0
2769,-1.0366211,-0.40649414,0.0625,0
2770,-1.0727539,-0.33544922,0.036376953,0
2771,-1.0366211,-0.34326175,0.053222656,0
2772,-0.9604493,-0.37670898,0.07373047,0
2773,-0.91308594,-0.38989258,0.07397461,0
2774,-0.8364258,-0.39404297,0.06982422,0
2775,-0.77197266,-0.3713379,0.068359375,0
2776,-0.803711,-0.3249512,0.13427734,0
2777,-0.803711,-0.3249512,0.13427734,0
2778,-0.95654297,-0.30688477,0.18237305,0
2779,-0.98242193,-0.2734375,0.16772461,0
2780,-0.99731445,-0.28686523,0.1826172,0
2781,-1.0012207,-0.37768558,0.27807617,0
2782,-0.7297364,-0.44628906,0.30126953,0
2783,-0.70776373,-0.42333984,0.3046875,0
2784,-0.9001465,-0.40234375,0.30908203,0
2785,-1.1289062,-0.41186523,0.2932129,0
2786,-1.0734863,-0.36572266,0.24340822,0
2787,-0.9282227,-0.27856445,0.21508789,0
2788,-0.8408203,-0.27514648,0.20312501,0
2789,-0.8066407,-0.3652344,0.31250003,0
2790,-0.795166,-0.43139648,0.30737308,0
2791,-0.7675781,-0.5192871,0.26635742,0
2792,-0.690918,-0.51782227,0.32666016,0
2793,-0.7126465,-0.4152832,0.30371097,0
2794,-0.73461914,-0.3984375,0.30004886,0
2795,-0.7875977,-0.39941406,0.3017578,0
2796,-0.8647461,-0.38745117,0.3232422,0
2797,-0.9279785,-0.45507812,0.35058597,0
2798,-0.9279785,-0.45507812,0.35058597,0
2799,-0.97583014,-0.4482422,0.35742188,0
2800,-0.972168,-0.38793948,0.32617188,0
2801,-1.0236816,-0.36962894,0.28295898,0
2802,-1.2783203,-0.513916,0.31152344,0
2803,-1.2783203,-0.513916,0.31152344,0
2804,-1.0478516,-0.3449707,0.20898439,0
2805,-1.0478516,-0.3449707,0.20898439,0
2806,-1.0561523,-0.3076172,0.11914063,0
2807,-1.0561523,-0.3076172,0.11914063,0
2808,-1.2873536,-0.37304688,0.091552734,0
2809,-1.2873536,-0.37304688,0.091552734,0
2810,-1.2797852,-0.3803711,0.09106445,0
2811,-1.2797852,-0.3803711,0.09106445,0
2812,-1.1298828,-0.3820801,0.14404297,0
2813,-1.1298828,-0.3820801,0.14404297,0
2814,-0.9416504,-0.2697754,0.06103516,0
2815,-1.3974609,-0.7495118,-0.84252936,0
2816,-0.07470703,-0.5192871,0.31860352,0
2817,-0.31884766,-0.80322266,-0.17138672,0
2818,-0.23950195,-1.2487793,-0.31811523,0
2819,-0.26635742,-0.8942871,-0.21655273,0
2820,-0.6904297,-0.48461917,0.24365234,0
2821,-0.99731445,-0.46630862,0.3688965,0
2822,-1.1899414,-0.3852539,0.2980957,0
2823,-1.1899414,-0.3852539,0.2980957,0
2824,-1.1899414,-0.3852539,0.2980957,0
2825,-1.2402344,-0.6369629,0.24291992,0
2826,-1.2131348,-0.60913086,0.15844728,0
2827,-1.1953125,-0.6059571,0.12402344,0
2828,-1.0534668,-0.5673828,0.12280274,0
2829,-0.86230475,-0.55566406,0.2788086,0
2830,-0.7106934,-0.38476562,0.28515625,0
2831,-0.7285156,-0.35571292,0.23999023,0
2832,-0.75927734,-0.3586426,0.23950195,0
2833,-0.8271485,-0.35937503,0.29296875,0
2834,-0.88305664,-0.3449707,0.2775879,0
2835,-0.84155273,-0.32421878,0.2553711,0
2836,-0.82495123,-0.28222656,0.18798828,0
2837,-0.9245606,-0.28076172,0.14526367,0
2838,-0.9169922,-0.29248047,0.16772461,0
2839,-0.9169922,-0.29248047,0.16772461,0
2840,-0.8430176,-0.30029297,0.15893555,0
2841,-0.890625,-0.31274414,0.077392586,0
2842,-0.8029786,-0.3166504,0.03149414,0
2843,-0.80859375,-0.3701172,0.051757812,0
2844,-0.9855957,-0.5168457,0.13867188,0
2845,-0.96264654,-0.4750977,0.06933594,0
2846,-1.0151367,-0.37622073,0.07543945,0
2847,-1.090332,-0.34277344,0.08862305,0
2848,-1.0168457,-0.23974611,0.0793457,0
2849,-1.0009766,-0.26708984,0.07788086,0
2850,-0.98779297,-0.38842773,0.057128906,0
2851,-0.95312506,-0.40991214,0.009521484,0
2852,-0.62524414,-0.17309572,-0.18798828,0
2853,-0.41918945,-0.46069336,-0.1555176,0
2854,-0.7043457,-0.8720703,0.14526367,0
2855,-0.9509278,-0.8901368,0.29858398,0
2856,-1.213623,-1.2348633,0.32250977,0
2857,-0.96630865,-0.15649414,0.7775879,0
2858,-0.96630865,-0.15649414,0.7775879,0
2859,-0.602295,-0.23779297,0.63159186,0
2860,-0.3820801,-0.25561523,0.2956543,0
2861,-0.4111328,-0.56225586,0.37451172,0
2862,-0.50439453,-0.63134766,0.5070801,0
2863,-0.44287112,-0.48217773,0.56152344,0
2864,-0.43286133,-0.47363284,0.60449225,0
2865,-0.5300293,-0.49609375,0.80029297,0
2866,-0.4609375,-0.5078125,0.8144531,0
2867,-0.40771487,-0.45092776,0.7465821,0
2868,-0.3581543,-0.61499023,0.7136231,0
2869,-0.5678711,0.2548828,1.3583986,0
2870,-0.29760742,0.24121095,1.0012207,0
2871,-0.21508789,0.3249512,0.6206055,0
2872,-0.08837891,0.8112793,0.9104004,0
2873,-0.16333008,0.51049805,1.0922852,0
2874,-0.29370117,0.1340332,1.28125,0
2875,0.037353516,0.49414065,1.0354004,0
2876,0.040039062,0.20678712,0.8271485,0
2877,0.040039062,0.20678712,0.8271485,0
2878,0.29125977,-0.10595704,1.2116699,0
2879,0.08569336,-0.19897461,1.8947754,0
2880,-0.13891602,-0.25170898,1.4121094,0
2881,0.21875,-0.43945312,0.5476074,0
2882,0.04248047,0.4375,0.56811523,0
2883,-0.1315918,-0.49047855,0.9384766,0
2884,-0.38256836,-0.6677246,1.0334473,0
2885,-0.3737793,-0.73461914,0.8496094,0
2886,-0.19287111,-0.30371097,0.8691406,0
2887,-0.20092775,-0.27270508,0.9477539,0
2888,-0.16552734,-0.14257812,0.9208985,0
2889,-0.13989258,-0.10961915,0.9555664,0
2890,-0.1459961,0.052246097,1.029541,0
2891,-0.16503908,0.05371094,1.0361328,0
2892,-0.2175293,0.024658205,1.0280762,0
2893,-0.29052734,-0.07128906,1.0085449,0
2894,-0.29614258,-0.13452148,0.9814453,0
2895,-0.31420898,-0.17382814,0.9658203,0
2896,-0.26538086,-0.2126465,0.9345703,0
2897,-0.23730469,-0.25561523,0.92968756,0
2898,-0.23413086,-0.27001953,0.92041016,0
2899,-0.24194337,-0.25390625,0.89624023,0
2900,-0.2553711,-0.22607422,0.921875,0
2901,-0.2512207,-0.2043457,0.9677735,0
2902,-0.21142578,-0.15795898,0.9545899,0
2903,-0.1994629,-0.16845703,0.93896484,0
2904,-0.2253418,-0.1640625,0.92211914,0
2905,-0.2253418,-0.22631836,0.9404297,0
2906,-0.25830078,-0.15429688,0.9648438,0
2907,-0.23950195,-0.17260742,0.94287115,0
2908,-0.24023438,-0.18041994,0.95214844,0
2909,-0.24169922,-0.19653322,0.94213873,0
2910,-0.23461916,-0.23242189,0.92285156,0
2911,-0.23632812,-0.24145508,0.9248047,0
2912,-0.23364258,-0.22460938,0.9291992,0
2913,-0.23706055,-0.22167969,0.9343262,0
2914,-0.23266602,-0.20361328,0.9394531,0
2915,-0.23168947,-0.20166017,0.9433594,0
2916,-0.23315431,-0.20581055,0.9394531,0
2917,-0.23950195,-0.20019533,0.9472657,0
2918,-0.23364258,-0.19433595,0.94311523,0
2919,-0.2290039,-0.19702148,0.9375,0
2920,-0.23461916,-0.20703125,0.93725586,0
2921,-0.24072266,-0.20581055,0.9375,0
2922,-0.23852539,-0.20898439,0.94018555,0
2923,-0.22924805,-0.20727539,0.9367676,0
2924,-0.23388673,-0.20214844,0.9379883,0
2925,-0.23486328,-0.18823242,0.93725586,0
2926,-0.23022462,-0.20922852,0.9472657,0
2927,-0.2319336,-0.1809082,0.94287115,0
2928,-0.2258301,-0.20385744,0.94677734,0
2929,-0.23925781,-0.18627931,0.94677734,0
2930,-0.22998047,-0.21020508,0.9377442,0
2931,-0.23046875,-0.21118166,0.9411621,0
2932,-0.23461916,-0.20996094,0.94018555,0
2933,-0.23632812,-0.20336914,0.9433594,0
2934,-0.23486328,-0.19726564,0.94189453,0
2935,-0.22973633,-0.2006836,0.94213873,0
2936,-0.22973633,-0.2006836,0.94213873,0
2937,-0.23754884,-0.20874023,0.93969727,0
2938,-0.22851562,-0.21044923,0.9394531,0
2939,-0.22851562,-0.21044923,0.9394531,0
2940,-0.2294922,-0.21020508,0.9367676,0
2941,-0.2319336,-0.20654297,0.94213873,0
2942,-0.22827148,-0.19970703,0.94287115,0
2943,-0.22827148,-0.19970703,0.94287115,0
2944,-0.22875978,-0.19995117,0.9440918,0
2945,-0.2319336,-0.21997072,0.935791,0
2946,-0.23242189,-0.2109375,0.93652344,0
2947,-0.23339844,-0.20214844,0.9470215,0
2948,-0.22656251,-0.2023926,0.9506836,0
2949,-0.23266602,-0.19897461,0.9609375,0
2950,-0.21313477,-0.21289062,0.93066406,0
2951,-0.20458986,-0.2475586,0.91259766,0
2952,-0.20458986,-0.2475586,0.91259766,0
2953,-0.22070314,-0.22265625,0.96728516,0
2954,-0.22070314,-0.22265625,0.96728516,0
2955,-0.19116211,-0.23803711,0.93334967,0
